veh_id,target_vel_x,target_vel_y,target_acc_x,target_acc_y,ref_heading,yaw_rate
1,0.177458,13.4021,0.063449,-0.33363,-0.27796,0.5421
1,0.182283,13.3729,0.054642,-0.34678,-0.22375,0.47069
1,0.186363,13.3408,0.044622,-0.35745,-0.17668,0.39616
1,0.190058,13.3067,0.033924,-0.36633,-0.13706,0.32721
1,0.193365,13.2715,0.022692,-0.37334,-0.10434,0.83139
1,0.207954,13.2227,0.0055052,-0.40021,-0.021204,0.69839
1,0.22097,13.1751,-0.011066,-0.41825,0.048636,0.56772
1,0.230606,13.1242,-0.02618,-0.4274,0.10541,0.4446
1,0.23559,13.0683,-0.040371,-0.43127,0.14987,0.33079
1,0.236226,13.0095,-0.05327,-0.43426,0.18295,0.22792
1,0.232289,12.9517,-0.064203,-0.43805,0.20574,0.1363
1,0.223663,12.896,-0.072655,-0.44036,0.21937,0.055293
1,0.21109,12.8421,-0.078638,-0.43874,0.2249,-0.014155
1,0.195228,12.7895,-0.082583,-0.4336,0.22348,-0.065746
1,0.176155,12.7388,-0.085274,-0.4264,0.21691,-0.096089
1,0.154152,12.6924,-0.094322,-0.41133,0.2073,-0.19663
1,0.130921,12.6533,-0.10497,-0.39574,0.18764,-0.2931
1,0.107926,12.6211,-0.11612,-0.37766,0.15833,-0.38066
1,0.0857041,12.5918,-0.12589,-0.35701,0.12026,-0.4505
1,0.0655305,12.5606,-0.13386,-0.33624,0.075211,-0.49661
1,0.0490521,12.526,-0.13937,-0.3182,0.02555,-0.51741
1,0.0369731,12.4921,-0.14192,-0.30371,-0.026191,-0.51616
1,0.0290863,12.4633,-0.14193,-0.29247,-0.077806,-0.50177
1,0.0248915,12.4395,-0.13941,-0.28455,-0.12798,-0.48192
1,0.0228164,12.4187,-0.13428,-0.28131,-0.17617,-0.45828
1,0.0193097,12.4001,-0.12677,-0.28468,-0.222,-0.42862
1,0.0110387,12.3836,-0.11717,-0.29571,-0.26486,-0.39005
1,-0.00163443,12.3689,-0.10579,-0.31167,-0.30387,-0.34381
1,-0.0161987,12.3543,-0.093585,-0.32715,-0.33825,-0.29756
1,-0.0314983,12.3371,-0.083778,-0.33772,-0.36801,-0.26864
1,-0.0464454,12.3153,-0.079619,-0.3426,-0.39487,-0.26765
1,-0.0601796,12.2885,-0.081325,-0.34568,-0.42164,-0.29021
1,-0.0727787,12.2571,-0.087146,-0.35073,-0.45066,-0.33101
1,-0.0835833,12.2204,-0.095574,-0.35775,-0.48376,-0.39055
1,-0.0924031,12.1762,-0.10525,-0.36512,-0.52281,-0.47063
1,-0.0993837,12.123,-0.11342,-0.37181,-0.56988,-0.55975
1,-0.103421,12.0619,-0.11706,-0.37743,-0.62585,-0.64103
1,-0.103655,11.9978,-0.11576,-0.38223,-0.68995,-0.70937
1,-0.101466,11.9375,-0.11113,-0.38607,-0.76089,-0.77047
1,-0.102024,11.8851,-0.10446,-0.38784,-0.83794,-0.82669
1,-0.110186,11.8408,-0.096568,-0.38602,-0.92061,-0.87279
1,-0.125677,11.8008,-0.087936,-0.37946,-1.0079,-0.90452
1,-0.145206,11.7619,-0.078821,-0.36756,-1.0983,-0.92263
1,-0.166257,11.724,-0.070162,-0.34991,-1.1906,-0.93135
1,-0.187686,11.6884,-0.062459,-0.32622,-1.2837,-0.93038
1,-0.20752,11.6564,-0.055784,-0.29637,-1.3768,-0.91809
1,-0.223086,11.6287,-0.05115,-0.2609,-1.4686,-0.89922
1,-0.233147,11.6045,-0.049613,-0.22212,-1.5585,-0.87711
1,-0.238468,11.5822,-0.050402,-0.18317,-1.6462,-0.84434
1,-0.24041,11.5614,-0.049297,-0.14644,-1.7306,-0.78068
1,-0.239581,11.5432,-0.042388,-0.11242,-1.8087,-0.67854
1,-0.236052,11.5296,-0.030183,-0.079647,-1.8766,-0.54932
1,-0.230421,11.522,-0.015783,-0.046812,-1.9315,-0.40552
1,-0.223908,11.5205,-0.0017044,-0.013686,-1.9721,-0.25429
1,-0.217321,11.5237,0.011712,0.019707,-1.9975,-0.094948
1,-0.210951,11.5303,0.024299,0.053288,-2.007,0.069022
1,-0.205721,11.54,0.034856,0.086899,-2.0001,0.23033
1,-0.202881,11.5536,0.042629,0.12125,-1.977,0.38573
1,-0.202269,11.5712,0.047855,0.15749,-1.9385,0.53728
1,-0.200618,11.5923,0.051356,0.19612,-1.8847,0.68509
1,-0.194961,11.6159,0.053673,0.2363,-1.8162,0.81909
1,-0.186044,11.6415,0.054583,0.27618,-1.7343,0.93172
1,-0.176771,11.6683,0.054316,0.31399,-1.6412,1.0248
1,-0.169666,11.6966,0.053509,0.34972,-1.5387,1.1026
1,-0.164262,11.7279,0.052749,0.38568,-1.4284,1.1694
1,-0.158922,11.763,0.05166,0.42437,-1.3115,1.2241
1,-0.153373,11.8025,0.049186,0.46628,-1.1891,1.2576
1,-0.147888,11.847,0.044527,0.51015,-1.0633,1.2566
1,-0.142757,11.8971,0.036619,0.55484,-0.93765,1.2098
1,-0.137697,11.9536,0.023318,0.60072,-0.81667,1.1117
1,-0.132234,12.0158,0.0034105,0.64851,-0.70549,0.97378
1,-0.126886,12.082,-0.021837,0.69839,-0.60812,0.81348
1,-0.12179,12.15,-0.050332,0.74996,-0.52677,0.63832
1,-0.11689,12.22,-0.080176,0.8022,-0.46294,0.4514
1,-0.111823,12.2951,-0.11145,0.85387,-0.4178,0.25335
1,-0.107631,12.379,-0.14495,0.90453,-0.39246,0.047759
1,-0.107348,12.4726,-0.18,0.95477,-0.38769,-0.1612
1,-0.113827,12.5739,-0.21583,1.0052,-0.40381,-0.37208
1,-0.129032,12.6809,-0.25235,1.0563,-0.44101,-0.5869
1,-0.153982,12.7937,-0.28968,1.108,-0.4997,-0.80597
1,-0.18814,12.913,-0.32755,1.1605,-0.5803,-1.0204
1,-0.229718,13.0383,-0.36496,1.2147,-0.68234,-1.2235
1,-0.277434,13.1682,-0.40151,1.2717,-0.80469,-1.4154
1,-0.330018,13.301,-0.43739,1.3309,-0.94623,-1.5949
1,-0.387167,13.4356,-0.47256,1.3895,-1.1057,-1.7623
1,-0.448818,13.5721,-0.50501,1.4436,-1.282,-1.9135
1,-0.513377,13.7121,-0.53133,1.4905,-1.4733,-2.0336
1,-0.579552,13.8574,-0.5487,1.5288,-1.6767,-2.1046
1,-0.647459,14.0098,-0.55488,1.5579,-1.8871,-2.1163
1,-0.717061,14.1696,-0.54873,1.577,-2.0988,-2.0686
1,-0.787329,14.3368,-0.53166,1.5862,-2.3056,-1.9767
1,-0.856805,14.5114,-0.50498,1.5868,-2.5033,-1.8521
1,-0.92481,14.6934,-0.46834,1.5816,-2.6885,-1.6929
1,-0.991678,14.8818,-0.42258,1.5733,-2.8578,-1.4996
1,-1.05695,15.0741,-0.36863,1.564,-3.0077,-1.2765
1,-1.11765,15.2663,-0.30806,1.5538,-3.1354,-1.0331
1,-1.17001,15.4536,-0.24424,1.5411,-3.2387,-0.7847
1,-1.21124,15.6315,-0.17847,1.524,-3.3172,-0.53629
1,-1.23879,15.7966,-0.11009,1.5006,-3.3708,-0.28178
1,-1.25144,15.9476,-0.03943,1.4689,-3.399,-0.019214
1,-1.25145,16.0853,0.032249,1.4279,-3.4009,0.24432
1,-1.23968,16.212,0.10368,1.3768,-3.3765,0.50305
1,-1.21412,16.3313,0.17432,1.3163,-3.3262,0.75631
1,-1.17519,16.4476,0.2444,1.2481,-3.2505,1.0028
1,-1.12443,16.5636,0.31326,1.1748,-3.1502,1.24
1,-1.06495,16.6797,0.37846,1.1,-3.0262,1.4627
1,-1.00187,16.7943,0.43713,1.0279,-2.88,1.6625
1,-0.936493,16.9055,0.48752,0.96342,-2.7137,1.8315
1,-0.867631,17.0109,0.52862,0.9107,-2.5306,1.9663
1,-0.795922,17.1075,0.56017,0.87152,-2.3339,2.0681
1,-0.722832,17.1925,0.5836,0.84495,-2.1271,2.144
1,-0.649454,17.265,0.59801,0.82755,-1.9127,2.1909
1,-0.576169,17.3259,0.60013,0.8145,-1.6936,2.1977
1,-0.50288,17.3779,0.58988,0.80155,-1.4739,2.1643
1,-0.430417,17.4237,0.56917,0.7866,-1.2574,2.0972
1,-0.360732,17.4662,0.54156,0.76992,-1.0477,2.0085
1,-0.295738,17.5094,0.51195,0.75313,-0.84687,1.916
1,-0.236193,17.5584,0.48123,0.73764,-0.65528,1.8232
1,-0.181549,17.618,0.44826,0.72486,-0.47295,1.7246
1,-0.131106,17.6907,0.41381,0.71631,-0.30049,1.6224
1,-0.0842424,17.7752,0.37851,0.71254,-0.13824,1.5145
1,-0.0436704,17.8671,0.3422,0.71287,0.013202,1.3912
1,-0.0138705,17.9603,0.30509,0.71572,0.15232,1.2476
1,0.00458279,18.0507,0.26754,0.71944,0.27708,1.0866
2,-0.00504729,13.5811,0.058915,0.04111,-0.2961,0.32968
2,0.00656928,13.5786,0.051049,0.055066,-0.26313,0.31044
2,0.0186418,13.5784,0.043694,0.067239,-0.23209,0.28543
2,0.0297733,13.5806,0.037036,0.076254,-0.20355,0.25659
2,0.0383897,13.5861,0.030981,0.081765,-0.17789,0.22507
2,0.0436841,13.5952,0.026329,0.085744,-0.15538,0.19031
2,0.0449982,13.6078,0.023341,0.090263,-0.13635,0.57465
2,0.0477552,13.6256,0.019327,0.10983,-0.078885,0.48413
2,0.0477459,13.645,0.01409,0.1284,-0.030472,0.38817
2,0.045369,13.6664,0.0081967,0.14198,0.0083449,0.28997
2,0.0410599,13.69,0.0021203,0.1513,0.037342,0.19574
2,0.0351523,13.715,-0.0041908,0.1582,0.056916,0.10057
2,0.0284882,13.74,-0.010867,0.16299,0.066973,0.0047518
2,0.0215406,13.762,-0.016758,0.16527,0.067449,-0.083297
2,0.0143452,13.7796,-0.020394,0.16441,0.059119,-0.15684
2,0.00860321,13.7953,-0.020873,0.15956,0.043435,-0.20969
2,0.00526137,13.8129,-0.017347,0.14951,0.022465,-0.24045
2,0.00318118,13.8332,-0.012508,0.13267,-0.0015792,-0.26996
2,0.00155243,13.8533,-0.0041157,0.11153,-0.028575,-0.28933
2,0.000218167,13.8701,0.0076117,0.087643,-0.057508,-0.29772
2,-0.000806658,13.8837,0.02138,0.062824,-0.08728,-0.29612
2,-0.00181241,13.895,0.035844,0.038409,-0.11689,-0.28097
2,-0.00309194,13.9044,0.04935,0.016263,-0.14499,-0.24625
2,-0.00374245,13.9112,0.060693,-0.00072109,-0.16961,-0.19245
2,-0.00239844,13.9149,0.069861,-0.010711,-0.18886,-0.12594
2,0.00193808,13.9143,0.075701,-0.015107,-0.20145,-0.053266
2,0.0103033,13.9068,0.077156,-0.016709,-0.20678,0.022146
2,0.0227385,13.891,0.07501,-0.016995,-0.20457,0.09795
2,0.0395145,13.868,0.070207,-0.015593,-0.19477,0.17266
2,0.0605924,13.8417,0.063497,-0.011893,-0.17751,0.24738
2,0.0838208,13.8156,0.055201,-0.006752,-0.15277,0.31655
2,0.106841,13.7918,0.046377,-0.0010251,-0.12111,0.38223
2,0.127188,13.7725,0.03805,0.0059172,-0.08289,0.44635
2,0.142928,13.7606,0.029688,0.015484,-0.038255,0.50269
2,0.154067,13.7582,0.020177,0.028636,0.012014,0.5417
2,0.160004,13.7651,0.0086961,0.046572,0.066184,0.55494
2,0.159573,13.7795,-0.0047569,0.071788,0.12168,0.54617
2,0.153201,13.7992,-0.019999,0.10595,0.1763,0.52093
2,0.141967,13.8221,-0.038354,0.14792,0.22839,0.47656
2,0.127211,13.8463,-0.060501,0.19389,0.27604,0.41219
2,0.109595,13.8702,-0.084377,0.23999,0.31726,0.33072
2,0.0909412,13.893,-0.10764,0.28415,0.35034,0.23227
2,0.0730088,13.9162,-0.12819,0.32476,0.37356,0.11298
2,0.0556335,13.9421,-0.14424,0.36002,0.38486,-0.027712
2,0.0379558,13.9722,-0.15579,0.38868,0.38209,-0.17926
2,0.0193303,14.0074,-0.16306,0.41039,0.36416,-0.32849
2,0.000789466,14.0504,-0.16571,0.42594,0.33131,-0.46726
2,-0.0172602,14.1029,-0.16389,0.43676,0.28459,-0.59455
2,-0.0371937,14.1638,-0.15816,0.44497,0.22513,-0.71067
2,-0.0604099,14.2295,-0.14964,0.4531,0.15407,-0.81699
2,-0.0849333,14.2956,-0.1389,0.46275,0.072368,-0.90986
2,-0.108446,14.3601,-0.12746,0.47375,-0.018618,-0.9901
2,-0.129186,14.422,-0.11717,0.48436,-0.11763,-1.0631
2,-0.145555,14.4806,-0.10902,0.49291,-0.22394,-1.1284
2,-0.157517,14.5355,-0.10314,0.49938,-0.33678,-1.1766
2,-0.166123,14.5859,-0.09907,0.50425,-0.45445,-1.199
2,-0.171847,14.6314,-0.098246,0.50729,-0.57435,-1.2057
2,-0.174582,14.6727,-0.10133,0.50805,-0.69492,-1.2087
2,-0.174344,14.7121,-0.10607,0.50658,-0.81579,-1.2049
2,-0.172067,14.7525,-0.1108,0.50432,-0.93628,-1.1883
2,-0.168196,14.7956,-0.11621,0.50307,-1.0551,-1.1579
2,-0.16398,14.8405,-0.12331,0.50366,-1.1709,-1.1156
2,-0.161335,14.8849,-0.13285,0.50643,-1.2825,-1.0624
2,-0.162398,14.928,-0.14552,0.51144,-1.3887,-0.99795
2,-0.168318,14.9709,-0.16039,0.51899,-1.4885,-0.92375
2,-0.178809,15.0159,-0.17552,0.53015,-1.5809,-0.84543
2,-0.195702,15.065,-0.18959,0.54557,-1.6654,-0.7674
2,-0.219929,15.119,-0.20227,0.56458,-1.7422,-0.68846
2,-0.249343,15.177,-0.21392,0.585,-1.811,-0.61062
2,-0.282008,15.2381,-0.22459,0.60438,-1.8721,-0.53739
2,-0.317362,15.3017,-0.23443,0.62208,-1.9258,-0.47017
2,-0.35506,15.3674,-0.24326,0.63912,-1.9728,-0.40698
2,-0.394893,15.4349,-0.2502,0.65673,-2.0135,-0.34084
2,-0.436586,15.5035,-0.2531,0.67482,-2.0476,-0.26436
2,-0.478303,15.5735,-0.25092,0.69176,-2.074,-0.18473
2,-0.517171,15.6462,-0.24433,0.70616,-2.0925,-0.11382
2,-0.551023,15.7225,-0.23229,0.71703,-2.1039,-0.047475
2,-0.57912,15.8019,-0.2146,0.72442,-2.1086,0.021545
2,-0.602179,15.8821,-0.19348,0.72984,-2.1065,0.089901
2,-0.621256,15.9613,-0.17053,0.73428,-2.0975,0.15209
2,-0.637064,16.0398,-0.1457,0.7377,-2.0823,0.20875
2,-0.65051,16.1187,-0.11825,0.73977,-2.0614,0.2647
2,-0.661739,16.1984,-0.086885,0.74022,-2.0349,0.32601
2,-0.668593,16.2776,-0.051055,0.7387,-2.0023,0.3954
2,-0.670157,16.3545,-0.012859,0.7339,-1.9628,0.4655
2,-0.667462,16.4283,0.023741,0.72378,-1.9163,0.53016
2,-0.660285,16.4991,0.055881,0.70723,-1.8632,0.5851
2,-0.649121,16.5678,0.083141,0.685,-1.8047,0.62733
2,-0.636306,16.6367,0.10625,0.65907,-1.742,0.65935
2,-0.623072,16.7067,0.12595,0.6312,-1.6761,0.68572
2,-0.608755,16.7771,0.14289,0.6017,-1.6075,0.70772
2,-0.591553,16.847,0.15772,0.57034,-1.5367,0.72393
2,-0.568663,16.9153,0.17068,0.53734,-1.4643,0.73227
2,-0.538696,16.9809,0.18075,0.50341,-1.3911,0.72782
2,-0.504021,17.0413,0.18806,0.46908,-1.3183,0.7165
2,-0.469689,17.0937,0.19383,0.43371,-1.2467,0.70745
2,-0.43926,17.137,0.19825,0.39585,-1.1759,0.70152
2,-0.412837,17.1718,0.20219,0.35385,-1.1058,0.70067
2,-0.389688,17.2002,0.20772,0.3064,-1.0357,0.71167
2,-0.369352,17.2237,0.21551,0.25381,-0.96453,0.7372
2,-0.351279,17.2432,0.22442,0.19776,-0.89081,0.77062
2,-0.335064,17.2594,0.23229,0.13992,-0.81375,0.80241
2,-0.320387,17.2731,0.23608,0.08153,-0.73351,0.8243
2,-0.307086,17.2844,0.23417,0.024185,-0.65108,0.83161
2,-0.294029,17.2926,0.22802,-0.02935,-0.56792,0.82955
2,-0.279793,17.2957,0.22075,-0.075816,-0.48496,0.82557
2,-0.26379,17.2908,0.21411,-0.11333,-0.4024,0.8253
2,-0.244734,17.2755,0.2072,-0.14227,-0.31987,0.82241
2,-0.220862,17.2495,0.19957,-0.16471,-0.23763,0.80739
2,-0.192058,17.2143,0.19182,-0.18315,-0.1569,0.77819
2,-0.159924,17.1726,0.18408,-0.19942,-0.079077,0.73846
2,-0.126983,17.1268,0.17559,-0.2144,-0.0052311,0.69467
2,-0.0964944,17.0784,0.1658,-0.22791,0.064236,0.64844
2,-0.0703506,17.0293,0.15549,-0.23868,0.12908,0.6017
2,-0.0479723,16.9826,0.14521,-0.24491,0.18925,0.55265
2,-0.0281826,16.9421,0.13493,-0.24497,0.24451,0.50116
3,-0.0843458,13.5176,-0.0056696,0.10554,0.032846,-0.026334
3,-0.0844965,13.5301,-0.0087043,0.12901,0.030213,-0.037065
3,-0.0846345,13.5414,-0.01247,0.15005,0.026506,-0.048911
3,-0.0847405,13.5516,-0.016064,0.16879,0.021615,-0.060227
3,-0.084842,13.5608,-0.019006,0.18462,0.015592,-0.068971
3,-0.0849205,13.5693,-0.021784,0.19664,0.0086953,-0.076639
3,-0.0849984,13.5771,-0.024801,0.20433,0.0010314,-0.086482
3,-0.0854613,13.5851,-0.027882,0.20799,-0.0076168,-0.097987
3,-0.0865172,13.5946,-0.030867,0.20852,-0.017415,-0.10805
3,-0.0879393,13.607,-0.033717,0.20691,-0.02822,-0.11456
3,-0.0900154,13.6231,-0.036423,0.20392,-0.039676,-0.1748
3,-0.0939205,13.6595,-0.040856,0.20372,-0.057156,-0.18266
3,-0.0993096,13.6977,-0.045393,0.20309,-0.075422,-0.18916
3,-0.105229,13.737,-0.050031,0.20216,-0.094338,-0.19903
3,-0.110955,13.7761,-0.054737,0.20089,-0.11424,-0.20925
3,-0.117021,13.8126,-0.059817,0.19915,-0.13517,-0.21949
3,-0.124027,13.8445,-0.063941,0.19684,-0.15712,-0.22574
3,-0.131744,13.8712,-0.064574,0.1939,-0.17969,-0.21738
3,-0.139906,13.8929,-0.060391,0.18998,-0.20143,-0.1874
3,-0.148408,13.9107,-0.05201,0.18427,-0.22017,-0.1368
3,-0.157192,13.9254,-0.041461,0.17602,-0.23385,-0.07528
3,-0.166209,13.9376,-0.030154,0.1564,-0.24138,-0.0094072
3,-0.17542,13.9476,-0.018555,0.13355,-0.24232,0.054091
3,-0.184803,13.9559,-0.0070254,0.10695,-0.23691,0.1096
3,-0.194316,13.9626,0.0039476,0.077714,-0.22595,0.15402
3,-0.204555,13.9676,0.015223,0.048549,-0.21055,0.19377
3,-0.21288,13.9708,0.027394,0.022414,-0.19117,0.23749
3,-0.214608,13.9729,0.040148,0.00090572,-0.16742,0.28655
3,-0.207299,13.9746,0.053246,-0.01546,-0.13876,0.33672
3,-0.191959,13.9755,0.066819,-0.026511,-0.10509,0.3861
3,-0.172938,13.9752,0.080844,-0.032566,-0.066483,0.43443
3,-0.154228,13.9723,0.095172,-0.034489,-0.02304,0.48023
3,-0.13642,13.9647,0.10943,-0.033435,0.024983,0.52077
3,-0.11928,13.9509,0.12274,-0.030147,0.07706,0.5525
3,-0.10306,13.9315,0.13444,-0.024335,0.13231,0.57124
3,-0.0865745,13.9097,0.14517,-0.01515,0.18943,0.58041
3,-0.0692384,13.8894,0.15238,-0.0022863,0.24748,0.57268
3,-0.0514482,13.873,0.15164,0.013376,0.30474,0.53198
3,-0.0334142,13.862,0.14095,0.030309,0.35794,0.44829
3,-0.0147703,13.8577,0.12159,0.047495,0.40277,0.32429
3,0.00449653,13.8603,0.09832,0.064634,0.4352,0.17913
3,0.0241339,13.8686,0.075619,0.082564,0.45311,0.032644
3,0.0434461,13.8807,0.054029,0.10354,0.45638,-0.10465
3,0.0606729,13.8956,0.032778,0.12956,0.44591,-0.22464
3,0.0745556,13.914,0.011836,0.1608,0.42345,-0.32502
3,0.0857903,13.9373,-0.0096818,0.19517,0.39094,-0.41704
3,0.091873,13.9662,-0.031753,0.22946,0.34924,-0.50998
3,0.0886657,13.9997,-0.053527,0.26106,0.29824,-0.60431
3,0.074601,14.0352,-0.0746,0.28752,0.23781,-0.69589
3,0.0512121,14.0705,-0.095106,0.30639,0.16822,-0.78516
3,0.0237028,14.1044,-0.11474,0.3168,0.089705,-0.87117
3,-0.00299026,14.1374,-0.13326,0.31984,0.0025888,-0.95006
3,-0.0283632,14.1718,-0.15032,0.31764,-0.092418,-1.0174
3,-0.0537232,14.21,-0.16434,0.31162,-0.19416,-1.0667
3,-0.0793885,14.2531,-0.17423,0.3014,-0.30083,-1.0937
3,-0.105938,14.3,-0.18041,0.28576,-0.4102,-1.1011
3,-0.132745,14.3483,-0.18188,0.26421,-0.52031,-1.0868
3,-0.158502,14.3951,-0.17743,0.23763,-0.62899,-1.0449
3,-0.182614,14.437,-0.16756,0.20785,-0.73348,-0.97417
3,-0.204982,14.4705,-0.15418,0.17658,-0.8309,-0.87856
3,-0.224974,14.4939,-0.14048,0.14481,-0.91875,-0.77163
3,-0.242395,14.5083,-0.12867,0.1125,-0.99592,-0.66518
3,-0.257189,14.516,-0.1185,0.078593,-1.0624,-0.56246
3,-0.268005,14.5189,-0.10903,0.042004,-1.1187,-0.46667
3,-0.2739,14.5168,-0.099939,0.0023246,-1.1653,-0.37873
3,-0.275039,14.5088,-0.090844,-0.039734,-1.2032,-0.29249
3,-0.271887,14.4946,-0.08222,-0.082432,-1.2325,-0.20553
3,-0.266187,14.475,-0.07479,-0.12341,-1.253,-0.11999
3,-0.260511,14.4509,-0.068446,-0.15964,-1.265,-0.040153
3,-0.257144,14.4237,-0.062908,-0.18828,-1.269,0.031603
3,-0.257255,14.394,-0.058669,-0.20812,-1.2659,0.091363
3,-0.260321,14.3624,-0.056044,-0.21995,-1.2567,0.13517
3,-0.265371,14.329,-0.054998,-0.22557,-1.2432,0.16318
3,-0.271787,14.294,-0.056153,-0.22645,-1.2269,0.17458
3,-0.279266,14.2577,-0.059951,-0.22291,-1.2094,0.16809
3,-0.287625,14.2205,-0.066338,-0.21484,-1.1926,0.14513
3,-0.297186,14.1834,-0.074991,-0.20252,-1.1781,0.10877
3,-0.308083,14.1483,-0.084584,-0.18669,-1.1673,0.060967
3,-0.319506,14.1178,-0.093396,-0.16858,-1.1612,0.0047312
3,-0.330799,14.0939,-0.099935,-0.14957,-1.1607,-0.055632
3,-0.342313,14.0776,-0.1034,-0.13064,-1.1662,-0.11264
3,-0.354484,14.0684,-0.10423,-0.11218,-1.1775,-0.16326
3,-0.367185,14.0649,-0.10319,-0.094024,-1.1938,-0.21124
3,-0.380311,14.066,-0.10072,-0.076,-1.215,-0.2578
3,-0.393803,14.0709,-0.097109,-0.058022,-1.2407,-0.30332
3,-0.407715,14.0791,-9.26E-02,-0.040189,-1.2711,-0.34891
3,-0.421869,14.0896,-0.087003,-0.02306,-1.306,-0.39341
3,-0.435356,14.1016,-0.079905,-0.0079416,-1.3453,-0.43409
3,-0.447302,14.1137,-0.071618,0.0033278,-1.3887,-0.46734
3,-0.457014,14.1245,-0.062406,0.0094327,-1.4354,-0.48905
3,-0.464048,14.1328,-0.052436,0.010363,-1.4844,-0.49506
3,-0.468788,14.1381,-0.041668,0.0072571,-1.5339,-0.48163
3,-0.471749,14.141,-0.0302,0.0017458,-1.582,-0.45073
3,-0.473224,14.142,-0.018962,-0.0044984,-1.6271,-0.40865
3,-0.473483,14.1417,-0.008882,-0.0097561,-1.668,-0.36051
3,-0.472856,14.1402,-2.98E-05,-0.012283,-1.704,-0.30825
3,-0.471191,14.1373,0.0080172,-0.010523,-1.7348,-0.25172
3,-0.467893,14.1324,0.014872,-0.0029143,-1.76,-0.19148
3,-0.462742,14.1244,0.020226,0.011666,-1.7792,-0.12847
3,-0.455612,14.1128,0.02438,0.033474,-1.792,-0.065931
3,-0.447186,14.0984,0.027414,0.062439,-1.7986,-0.010932
3,-0.43782,14.0829,0.029484,0.09805,-1.7997,0.03205
3,-0.427585,14.0684,0.030683,0.13914,-1.7965,0.064712
3,-0.418235,14.057,0.031325,0.18435,-1.79,0.091262
3,-0.411567,14.0514,0.032114,0.23237,-1.7809,0.11516
3,-0.407774,14.0545,0.033839,0.28211,-1.7694,0.13981
3,-0.405835,14.0685,0.036687,0.33285,-1.7554,0.16583
3,-0.405612,14.0957,0.039919,0.38422,-1.7388,0.19025
3,-0.406849,14.1371,0.042402,0.4362,-1.7198,0.20879
3,-0.408255,14.1915,0.044449,0.4887,-1.6989,0.22291
3,-0.40922,14.2576,0.048736,0.54159,-1.6766,0.24126
3,-0.409821,14.3342,0.055724,0.59483,-1.6525,0.26239
3,-0.410384,14.4193,0.063742,0.6481,-1.6262,0.27866
3,-0.410573,14.5107,0.071988,0.70011,-1.5984,0.28876
3,-0.409256,14.6064,0.079481,0.74783,-1.5695,0.29171
3,-0.405178,14.7044,0.085745,0.78733,-1.5403,0.28744
3,-0.397817,14.803,0.091697,0.81544,-1.5116,0.27974
3,-0.388055,14.9009,0.099353,0.82998,-1.4836,0.27549
3,-0.377939,14.9968,0.10941,0.83099,-1.4561,0.27675
3,-0.366714,15.0902,0.12088,0.82065,-1.4284,0.28483
3,-0.349715,15.1816,0.13316,0.80076,-1.3999,0.30335
3,-0.326373,15.2725,0.14611,0.77249,-1.3696,0.33532
3,-0.300101,15.3646,0.15983,0.73724,-1.336,0.38028
3,-0.27426,15.4572,0.17395,0.69684,-1.298,0.43271
3,-0.252606,15.5471,0.18711,0.65337,-1.2547,0.48713
3,-0.236284,15.6292,0.19738,0.60887,-1.206,0.53572
3,-0.22244,15.6994,0.20316,0.56506,-1.1525,0.57199
3,-0.206907,15.7557,0.20383,0.52373,-1.0953,0.5934
3,-0.188029,15.799,0.20028,0.48667,-1.0359,0.60174
3,-0.166488,15.8328,0.19141,0.45472,-0.97575,0.59105
3,-0.142904,15.8592,0.18327,0.41775,-0.91664,0.57769
3,-0.117602,15.8792,0.16683,0.38171,-0.85887,0.53498
3,-0.0907208,15.8937,0.1452,0.34424,-0.80537,0.47658
3,-0.0626786,15.9044,0.12273,0.30451,-0.75771,0.41822
3,-0.0350445,15.9132,0.10494,0.26428,-0.71589,0.3773
3,-0.01042,15.9221,0.093999,0.22742,-0.67816,0.35933
3,0.00850347,15.9331,0.086582,0.19736,-0.64223,0.35148
3,0.0196043,15.9483,0.078103,0.17559,-0.60708,0.33877
3,0.0226279,15.9701,0.066912,0.1609,-0.5732,0.31672
3,0.0161002,15.9996,0.056142,0.14403,-0.54153,0.28859
3,0.0168319,16.0171,0.046684,0.13772,-0.51267,0.24182
3,0.00728279,16.036,0.03522,0.13427,-0.48849,0.22303
3,-0.00971013,16.0531,0.02148,0.1336,-0.46619,0.19378
3,-0.0288052,16.0662,0.005296,0.13528,-0.44681,0.15436
3,-0.0427229,16.0757,-0.012774,0.13845,-0.43138,0.10533
3,-0.0482858,16.084,-0.031275,0.14195,-0.42084,0.050982
3,-0.0492764,16.0942,-0.048237,0.1444,-0.41574,-0.0019506
4,0.161021,12.1294,-0.14519,0.12126,0.14338,-0.26804
4,0.137376,12.1709,-0.14189,0.082911,0.11658,-0.2937
4,0.114337,12.2115,-0.13762,0.044203,0.08721,-0.29283
4,0.0922972,12.2504,-0.13238,0.0074181,0.057927,-0.26967
4,0.0728413,12.2842,-0.12601,-0.026165,0.03096,-0.22201
4,0.0565791,12.3087,-0.11826,-0.056602,0.0087598,-0.15069
4,0.0427488,12.3214,-0.10945,-0.085098,-0.0063097,-0.067375
4,0.0310578,12.3213,-0.099947,-0.11309,-0.013047,0.019634
4,0.0223675,12.3079,-0.090134,-0.1416,-0.011084,0.10474
4,0.0175328,12.2832,-0.080589,-0.17097,-0.00060998,0.18517
4,0.015835,12.2506,-0.07155,-0.20081,0.017907,0.010281
4,0.00493946,12.2206,-0.054246,-0.26274,0.018935,0.16443
4,-0.00412673,12.1824,-0.036864,-0.32659,0.035378,0.31305
4,-0.0110741,12.139,-0.019657,-0.39151,0.066683,0.45444
4,-0.0153869,12.0928,-0.003969,-0.4546,0.11213,0.58096
4,-0.0163618,12.0445,0.0095272,-0.51172,0.17022,0.6865
4,-0.0141016,11.9932,0.020894,-0.55846,0.23887,0.76873
4,-0.00888874,11.9371,0.030179,-0.59072,0.31575,0.82979
4,-0.00121997,11.8745,0.036823,-0.60569,0.39873,0.87248
4,0.00790135,11.8045,0.040089,-0.60275,0.48597,0.89895
4,0.0179216,11.7278,0.041061,-0.58355,0.57587,0.91558
4,0.0288829,11.6454,0.045893,-0.55491,0.66743,0.94875
4,0.0406096,11.5583,0.048805,-0.51401,0.7623,0.94909
4,0.0529826,11.4673,0.050049,-0.46446,0.85721,0.91506
4,0.0649032,11.3749,0.049663,-0.40896,0.94872,0.84095
4,0.0756335,11.2852,0.047192,-0.34891,1.0328,0.72249
4,0.0845366,11.2045,0.0422,-0.28417,1.1051,0.56524
4,0.091415,11.1398,0.034878,-0.21353,1.1616,0.37689
4,0.0960128,11.0965,0.025918,-0.13563,1.1993,0.16612
4,0.0977105,11.0777,0.016275,-0.049799,1.2159,-0.060548
4,0.0979568,11.0835,0.0063435,0.04323,1.2098,-0.29736
4,0.0967259,11.1108,-0.0040247,0.14216,1.1801,-0.53543
4,0.0934832,11.1544,-0.014859,0.24623,1.1266,-0.76763
4,0.0890238,11.2101,-0.026113,0.35543,1.0498,-0.98964
4,0.0839395,11.2748,-0.037002,0.46946,0.95083,-1.1902
4,0.0780223,11.3467,-0.047181,0.58629,0.8318,-1.3603
4,0.0702974,11.4249,-0.055912,0.70023,0.69577,-1.4953
4,0.0608664,11.5101,-0.062812,0.80402,0.54625,-1.5986
4,0.0506163,11.6032,-0.068106,0.89207,0.38639,-1.6737
4,0.040452,11.7049,-0.071715,0.96089,0.21902,-1.7211
4,0.0306087,11.8142,-0.074944,1.0098,0.046902,-1.7473
4,0.0208335,11.9297,-0.077267,1.0413,-0.12783,-1.7448
4,0.0108909,12.0507,-0.078103,1.0592,-0.30231,-1.7083
4,0.000757263,12.1782,-0.078978,1.0658,-0.47314,-1.6456
4,-0.00910017,12.3139,-0.080841,1.0625,-0.6377,-1.5617
4,-0.0187291,12.4578,-0.083271,1.0506,-0.79388,-1.4567
4,-0.0272871,12.605,-0.084596,1.0317,-0.93955,-1.329
4,-0.0342089,12.7478,-0.084067,1.0061,-1.0724,-1.1819
4,-0.0401984,12.8806,-0.081906,0.97289,-1.1906,-1.0194
4,-0.0457193,12.9995,-0.078742,0.9309,-1.2926,-0.84508
4,-0.0519319,13.1032,-0.074953,0.88052,-1.3771,-0.66418
4,-0.0578084,13.1934,-0.070549,0.82326,-1.4435,-0.48309
4,-0.0627225,13.2727,-0.065418,0.76058,-1.4918,-0.30632
4,-0.0689332,13.3417,-0.059429,0.69283,-1.5224,-0.13379
4,-0.0777433,13.3998,-0.053172,0.61907,-1.5358,0.028422
4,-0.0885195,13.4479,-0.046778,0.53916,-1.533,0.17057
4,-0.0988954,13.4884,-0.040699,0.45639,-1.5159,0.29074
4,-0.107268,13.5223,-0.035465,0.37582,-1.4869,0.39341
4,-0.113195,13.549,-0.030794,0.30149,-1.4475,0.48103
4,-0.117032,13.5667,-0.026534,0.2356,-1.3994,0.55169
4,-0.119297,13.5753,-0.022188,0.1785,-1.3442,0.60157
4,-0.120264,13.5762,-0.018231,0.12911,-1.2841,0.62611
4,-0.119944,13.5719,-0.014996,0.086095,-1.2215,0.62702
4,-0.118101,13.5639,-0.011452,0.049355,-1.1588,0.61259
4,-0.115444,13.552,-0.0077099,0.019225,-1.0975,0.58547
4,-0.112285,13.5361,-0.0051147,-0.0049572,-1.039,0.5439
4,-0.108684,13.5178,-0.0053763,-0.024357,-0.98458,0.48607
4,-0.10514,13.4995,-0.0093636,-0.039004,-0.93597,0.4138
4,-0.101786,13.4836,-0.016887,-0.04691,-0.89459,0.32913
4,-0.0987883,13.4707,-0.02754,-0.045487,-0.86168,0.23264
4,-0.0963081,13.4602,-0.041012,-0.03382,-0.83841,0.12748
4,-0.0942695,13.4516,-0.056475,-0.012973,-0.82567,0.01883
4,-0.0927147,13.4449,-0.073248,0.015078,-0.82378,-0.088915
4,-0.0918364,13.4404,-0.091381,0.048767,-0.83268,-0.19544
4,-0.0931631,13.4382,-0.11088,0.087635,-0.85222,-0.29942
4,-0.0987488,13.438,-0.13179,0.13119,-0.88216,-0.39805
4,-0.109648,13.4396,-0.15332,0.1778,-0.92197,-0.49432
4,-0.125996,13.4443,-0.17418,0.22485,-0.9714,-0.5898
4,-0.146969,13.4552,-0.19359,0.26951,-1.0304,-0.68093
4,-0.172112,13.4758,-0.21127,0.30999,-1.0985,-0.76455
4,-0.201322,13.5076,-0.22711,0.3454,-1.1749,-0.83595
4,-0.233213,13.5503,-0.24147,0.37576,-1.2585,-0.8935
4,-0.26644,13.6021,-0.254,0.40222,-1.3479,-0.93418
4,-0.300864,13.6614,-0.26331,0.42602,-1.4413,-0.95427
4,-0.337212,13.7273,-0.26781,0.44772,-1.5367,-0.94943
4,-0.375864,13.7985,-0.26628,0.46702,-1.6317,-0.91823
4,-0.415329,13.8734,-0.25848,0.48272,-1.7235,-0.8614
4,-0.453505,13.9492,-0.24457,0.49299,-1.8096,-0.77841
4,-0.488969,14.0226,-0.22521,0.49545,-1.8875,-0.6719
4,-0.521322,14.0907,-0.20078,0.4881,-1.9547,-0.54369
4,-0.550522,14.151,-0.17157,0.47028,-2.009,-0.39707
4,-0.577218,14.2032,-0.13907,0.44226,-2.0487,-0.23873
4,-0.600712,14.2493,-0.10473,0.40478,-2.0726,-0.076271
4,-0.618449,14.2924,-0.069092,0.35876,-2.0802,0.079389
4,-0.628779,14.3337,-0.031229,0.30544,-2.0723,0.22575
4,-0.63131,14.3721,0.0091891,0.24645,-2.0497,0.36929
4,-0.626613,14.4051,0.049259,0.18367,-2.0128,0.50903
4,-0.615132,14.4303,0.085521,0.11973,-1.9619,0.63842
4,-0.597382,14.4461,0.11648,0.058516,-1.898,0.74869
4,-0.573682,14.452,0.14292,0.0039808,-1.8232,0.83916
4,-0.544467,14.4482,0.16611,-0.040793,-1.7393,0.91588
4,-0.511362,14.4348,0.18668,-0.074871,-1.6477,0.98101
4,-0.475907,14.4116,0.20383,-0.099943,-1.5496,1.0299
4,-0.439047,14.3789,0.21571,-0.1184,-1.4466,1.0556
4,-0.39967,14.3382,0.22163,-0.13181,-1.341,1.056
4,-0.357486,14.2914,0.22192,-0.14047,-1.2354,1.0335
4,-0.31681,14.2407,0.21715,-0.14365,-1.1321,0.9903
4,-0.282463,14.1886,0.20794,-0.14044,-1.033,0.92535
4,-0.256009,14.1397,0.19498,-0.13019,-0.94049,0.83847
4,-0.235481,14.0986,0.17879,-0.11279,-0.85664,0.73165
4,-0.2183,14.0694,0.15978,-0.088586,-0.78348,0.60979
4,-0.203864,14.0534,0.13876,-0.057767,-0.7225,0.47638
4,-0.193053,14.0495,0.11657,-0.020623,-0.67486,0.33676
4,-0.187031,14.0556,0.093879,0.021958,-0.64118,0.20611
4,-0.185512,14.07,0.069898,0.068299,-0.62057,0.087427
4,-0.187466,14.0911,0.044505,0.1167,-0.61183,-0.027191
4,-0.192307,14.1178,0.021096,0.16629,-0.61455,-0.13308
4,-0.199247,14.1494,0.0033885,0.21603,-0.62786,-0.22176
4,-0.207423,14.1857,-0.0077921,0.26326,-0.65003,-0.28541
4,-0.216096,14.2264,-0.014521,0.30441,-0.67857,-0.32689
4,-0.224915,14.271,-0.019041,0.33643,-0.71126,-0.3576
4,-0.233844,14.3193,-0.021636,0.35809,-0.74702,-0.37836
4,-0.242757,14.3704,-0.021439,0.36994,-0.78486,-0.3831
4,-0.251289,14.4229,-0.01767,0.37316,-0.82317,-0.36833
4,-0.259873,14.4748,-0.010584,0.36913,-0.86,-0.33532
4,-0.268476,14.5248,-0.00089814,0.3592,-0.89353,-0.28409
4,-0.274618,14.5733,0.010945,0.34439,-0.92194,-0.21514
4,-0.275686,14.6207,0.024289,0.32536,-0.94346,-0.1319
4,-0.271593,14.6662,0.038395,0.30232,-0.95665,-0.038559
4,-0.264523,14.7075,0.052928,0.27471,-0.9605,0.060007
4,-0.256383,14.7423,0.061502,0.25233,-0.9545,0.11827
4,-0.247135,14.7696,0.070051,0.22709,-0.94267,0.18042
4,-0.235931,14.7893,0.078535,0.1994,-0.92463,0.246
4,-0.222372,14.8019,0.086762,0.17001,-0.90003,0.3085
4,-0.206679,14.8083,0.095023,0.13978,-0.86918,0.36709
4,-0.189262,14.8095,0.10352,0.10919,-0.83247,0.4259
4,-0.170417,14.8066,0.11132,0.077941,-0.78988,0.48506
4,-0.150669,14.8002,0.11735,0.045461,-0.74138,0.54331
4,-0.130633,14.7904,0.12183,0.011846,-0.68705,0.59987
4,-0.11024,14.7758,0.11829,-0.0087946,-0.62706,0.60084
4,-0.101912,14.7757,0.12023,-0.027591,-0.56698,0.31587
4,-0.0937426,14.7734,0.12178,-0.044293,-0.53539,0.34562
4,-0.0856862,14.7692,0.12235,-0.058506,-0.50083,0.37155
4,-0.0777642,14.7629,0.12152,-0.070045,-0.46367,0.39116
4,-0.0698283,14.7543,0.11916,-0.07895,-0.42456,0.4037
4,-0.0614381,14.7432,0.11523,-0.085457,-0.38419,0.40452
4,-0.0519778,14.7292,0.1096,-0.089756,-0.34373,0.38848
4,-0.0409848,14.7116,0.10228,-0.091897,-0.30489,0.35433
4,-0.0279373,14.6899,0.093359,-0.091352,-0.26945,0.30449
4,-0.0279373,14.6899,0.093359,-0.091352,-0.239,0.30449
5,0.0639514,18.3425,-0.076247,-0.11254,0.28224,-0.39452
5,0.0551032,18.3203,-0.073271,-0.12049,0.24279,-0.43027
5,0.0473491,18.297,-0.070381,-0.12157,0.19976,-0.4656
5,0.0404867,18.2716,-0.068346,-0.11771,0.1532,-0.50271
5,0.0343754,18.2438,-0.066984,-0.11043,0.10293,-0.53898
5,0.0288721,18.2135,-0.064937,-0.10077,0.049034,-0.56759
5,0.0232665,18.1829,-0.060802,-0.088885,-0.0077244,-0.5822
5,0.0173261,18.1553,-0.055136,-0.074841,-0.065944,-0.5867
5,0.0116747,18.1342,-0.049055,-0.058933,-0.12461,-0.58536
5,0.00680201,18.1225,-0.043306,-0.041725,-0.18315,-0.58066
5,0.00323165,18.1229,-0.038287,-0.023732,-0.24122,-0.57615
5,0.00113352,18.1361,-0.033536,-0.004773,-0.29883,-0.57094
5,-7.57E-05,18.158,-0.029027,0.015906,-0.35593,-0.56633
5,-0.00140517,18.1836,-0.024704,0.039048,-0.41256,-0.56317
5,-0.0037027,18.208,-0.020549,0.065129,-0.46888,-0.55867
5,-0.00643258,18.228,-0.016532,0.093859,-0.52474,-0.54706
5,-0.00865145,18.2434,-0.012018,0.12329,-0.57945,-0.51837
5,-0.0105134,18.256,-0.0068231,0.1499,-0.63129,-0.46824
5,-0.0118431,18.2681,-0.0016499,0.17007,-0.67811,-0.40159
5,-0.012522,18.281,0.0029653,0.18112,-0.71827,-0.32432
5,-0.0126229,18.295,0.0064741,0.18015,-0.7507,-0.24125
5,-0.0119694,18.3107,0.0086661,0.16651,-0.77483,-0.15641
5,-0.0107048,18.3288,0.010091,0.1442,-0.79047,-0.070618
5,-0.00892159,18.3497,0.011731,0.11834,-0.79753,0.015894
5,-0.00672249,18.374,0.014416,0.093412,-0.79594,0.10162
5,-0.00419249,18.4013,0.017645,0.072506,-0.78578,0.18199
5,-0.000770144,18.4295,0.020764,0.055909,-0.76758,0.25269
5,0.00367998,18.4551,0.023567,0.042382,-0.74231,0.31225
5,0.0083749,18.4744,0.02486,0.030988,-0.71108,0.35726
5,0.0127327,18.4847,0.023567,0.021272,-0.67536,0.38488
5,0.0161799,18.4832,0.019773,0.012675,-0.63687,0.39534
5,0.0184656,18.4691,0.014857,0.0041814,-0.59734,0.39367
5,0.0201065,18.4464,0.0098887,-0.0053132,-0.55797,0.38539
5,0.0220562,18.4203,0.0039885,-0.016281,-0.51943,0.36953
5,0.0251302,18.3949,-0.0037157,-0.028835,-0.48248,0.34211
5,0.0288577,18.373,-0.012958,-0.042748,-0.44827,0.30212
5,0.0328759,18.3552,-0.024053,-0.057003,-0.41806,0.24623
5,0.0366212,18.3407,-0.038009,-0.0699,-0.39343,0.17014
5,0.0378769,18.3301,-0.055688,-0.079735,-0.37642,0.073014
5,0.0346118,18.3235,-0.0765,-0.085165,-0.36912,-0.041604
5,0.0269224,18.3204,-0.098533,-0.084657,-0.37328,-0.16792
5,0.0177444,18.3191,-0.12137,-0.077832,-0.39007,-0.30182
5,0.00907251,18.3181,-0.14594,-0.066685,-0.42025,-0.43998
5,-0.000944493,18.3172,-0.17238,-0.053647,-0.46425,-0.57659
5,-0.0141538,18.3163,-0.19988,-0.04084,-0.52191,-0.70695
5,-0.0301094,18.3158,-0.22794,-0.030146,-0.5926,-0.83089
5,-0.0488764,18.3155,-0.25781,-0.022511,-0.67569,-0.95224
5,-0.0723385,18.3153,-0.28966,-0.018498,-0.77092,-1.0709
5,-0.103001,18.3149,-0.32003,-0.018731,-0.87801,-1.1771
5,-0.140266,18.3144,-0.34541,-0.022728,-0.99572,-1.2611
5,-0.180887,18.3139,-0.36496,-0.028588,-1.1218,-1.3199
5,-0.224271,18.3134,-0.38102,-0.033752,-1.2538,-1.3601
5,-0.271783,18.313,-0.3953,-0.036352,-1.3898,-1.3887
5,-0.32271,18.313,-0.40558,-0.036246,-1.5287,-1.3989
5,-0.374633,18.3132,-0.41029,-0.034125,-1.6686,-1.3838
5,-0.427025,18.3128,-0.4102,-0.030876,-1.807,-1.3456
5,-0.482752,18.3101,-0.40533,-0.027399,-1.9415,-1.286
5,-0.5427,18.3037,-0.39384,-0.024173,-2.0701,-1.2005
5,-0.602178,18.2926,-0.37306,-0.021248,-2.1902,-1.0816
5,-0.656213,18.2781,-0.34421,-0.018526,-2.2983,-0.93338
5,-7.03E-01,18.2632,-0.31171,-0.016162,-2.3917,-0.76978
5,-0.7443,18.2516,-0.27738,-0.014581,-2.4687,-0.60094
5,-0.781526,18.2454,-0.24125,-0.014228,-2.5288,-0.4344
5,-0.812111,18.2447,-0.20479,-0.015159,-2.5722,-0.281
5,-0.834741,18.2481,-0.17003,-0.016259,-2.6003,-0.14796
5,-0.850514,18.254,-0.13641,-0.014984,-2.6151,-0.029674
5,-0.859535,18.2607,-0.10045,-0.0081577,-2.6181,0.086496
5,-0.860009,18.2669,-0.061397,0.0066107,-2.6094,0.20397
5,-0.849122,18.2724,-0.023402,0.029265,-2.589,0.31206
5,-0.828677,18.2774,0.0098005,0.056734,-2.5578,0.40244
5,-0.804314,18.2816,0.036491,0.084807,-2.5176,0.47157
5,-0.779039,18.2842,0.056979,0.1101,-2.4704,0.51884
5,-0.754274,18.2846,0.072138,0.13061,-2.4185,0.54689
5,-0.732299,18.2826,0.08152,0.14589,-2.3638,0.55371
5,-0.714698,18.2807,0.085807,0.15632,-2.3085,0.5395
5,-0.699848,18.2828,0.086411,0.16267,-2.2545,0.5097
5,-0.683655,18.2938,0.083858,0.16582,-2.2035,0.46725
5,-0.665493,18.317,0.07727,0.16599,-2.1568,0.40985
5,-0.648982,18.3511,0.064766,0.16334,-2.1158,0.33233
5,-0.636612,18.3915,0.048314,0.1585,-2.0826,0.23948
5,-0.630011,18.4328,0.03225,0.15297,-2.0586,0.1449
5,-0.630342,18.4718,0.018841,0.14851,-2.0442,0.061094
5,-0.637249,18.5066,0.0098154,0.146,-2.038,-0.0017397
5,-0.649071,18.5365,0.0067643,0.1452,-2.0382,-0.035693
5,-0.663128,18.5607,0.0094129,0.14484,-2.0418,-0.040419
5,-0.677692,18.5794,0.01571,0.14281,-2.0458,-0.025352
5,-0.69182,18.5923,0.023145,0.13662,-2.0484,0.0015617
5,-0.705469,18.5989,0.032092,0.12504,-2.0482,0.041225
5,-0.71959,18.5991,0.044692,0.11016,-2.0441,0.097589
5,-0.732048,18.5944,0.061408,0.096093,-2.0343,0.16659
5,-0.739815,18.5875,0.082672,0.085924,-2.0177,0.24553
5,-0.741357,18.5813,0.10861,0.08048,-1.9931,0.3371
5,-0.734643,18.5766,0.13833,0.079781,-1.9594,0.44114
5,-0.71877,18.5731,0.16987,0.084039,-1.9153,0.55303
5,-0.695872,18.5703,0.20089,0.09378,-1.86,0.66564
5,-0.668428,18.5684,0.23033,0.10935,-1.7934,0.77357
5,-0.637365,18.5671,0.25775,0.13093,-1.7161,0.8744
5,-0.60131,18.567,0.28353,0.15918,-1.6286,0.96945
5,-0.559597,18.5715,0.3086,0.19416,-1.5317,1.0612
5,-0.513797,18.5837,0.33092,0.23496,-1.4256,1.1457
5,-0.464667,18.6047,0.34425,0.26007,-1.311,1.1939
5,-0.413125,18.6328,0.35303,0.28778,-1.1916,1.2258
5,-0.360588,18.6662,0.35647,0.3181,-1.069,1.2377
5,-0.309334,18.7045,0.35431,0.35192,-0.94528,1.2302
5,-0.261353,18.7483,0.34826,0.38897,-0.82225,1.2089
5,-0.217039,18.7981,0.33973,0.42773,-0.70136,1.1796
5,-0.176312,18.8542,0.32862,0.46646,-0.5834,1.1417
5,-0.138409,18.9173,0.31361,0.50287,-0.46924,1.0918
5,-0.102393,18.9874,0.29441,0.53322,-0.36006,1.0305
5,-0.0702021,19.0643,0.27151,0.5271,-0.25701,0.94895
5,-0.0513226,19.1076,0.25994,0.5438,-0.16211,0.61691
5,-0.0352948,19.1568,0.24575,0.55841,-0.10042,0.58983
5,-0.0217013,19.2128,0.2293,0.57158,-0.041439,0.55554
5,-0.0101563,19.2769,0.2116,0.58335,0.014115,0.51511
6,0.0155499,15.473,0.017749,-0.36549,-0.28953,0.14807
6,0.0164441,15.4223,0.016339,-0.35339,-0.27473,0.15204
6,0.0173943,15.3775,0.014884,-0.34171,-0.25952,0.15533
6,0.0184042,15.3399,0.0097989,-0.32187,-0.24399,0.14653
6,0.0192397,15.3091,0.0059939,-0.30033,-0.22934,0.13945
6,0.0199176,15.2839,0.0032278,-0.27641,-0.21539,0.13091
6,0.0204917,15.2636,0.0010184,-0.25056,-0.2023,0.12228
6,0.0207955,15.2479,-0.00096064,-0.22376,-0.19007,0.11644
6,0.0206651,15.2361,-0.0029927,-0.1966,-0.17843,0.11215
6,0.0201755,15.2268,-0.0048515,-0.16858,-0.16721,0.10736
6,0.0194151,15.2191,-0.0067973,-0.13871,-0.15648,0.09722
6,0.0184176,15.2127,-0.008736,-0.10671,-0.14676,0.084614
6,0.0171975,15.2073,-0.010004,-0.073407,-0.13829,0.074897
6,0.0158064,15.2029,-0.010376,-0.039129,-0.1308,0.067916
6,0.0142739,15.1993,-0.0086031,-0.0031709,-0.12401,0.069682
6,0.0126245,15.1963,-0.0037016,0.03421,-0.11704,0.085431
6,0.0108782,15.1935,0.0033147,0.070768,-0.1085,0.10856
6,0.00902555,15.191,0.011166,0.10417,-0.097645,0.13161
6,0.00688747,15.1893,0.019102,0.13307,-0.084484,0.15289
6,0.00475015,15.1899,0.026095,0.15704,-0.069194,0.17113
6,0.00195539,15.1956,0.031959,0.17669,-0.052081,0.18666
6,-0.0010279,15.2089,0.037074,0.19286,-0.033415,0.20016
6,-0.00261405,15.2307,0.041588,0.20626,-0.013399,0.21182
6,-0.00234679,15.2616,0.045592,0.21738,0.0077836,0.22285
6,0.00203345,15.3027,0.049181,0.2262,0.030068,0.23409
6,0.0125144,15.3523,0.052473,0.23273,0.053477,0.24675
6,0.0271211,15.4052,0.055623,0.23747,0.078152,0.2596
6,0.043127,15.4563,0.058644,0.24151,0.10411,0.27099
6,0.058869,15.5022,0.061762,0.24595,0.13121,0.28264
6,0.0723657,15.5409,0.064941,0.25069,0.15948,0.29437
6,0.0833337,15.5725,0.06884,0.25368,0.18891,0.30826
6,0.0925652,15.5984,0.07298,0.25186,0.21974,0.32059
6,0.100373,15.6199,0.075649,0.2429,0.2518,0.32312
6,0.106991,15.6377,0.076284,0.22492,0.28411,0.31409
6,0.112636,15.6517,0.072525,0.19699,0.31552,0.2838
6,0.11757,15.6617,0.062426,0.1619,0.3439,0.22656
6,0.122125,15.6685,0.048517,0.12583,0.36655,0.15682
6,0.126314,15.674,0.033582,0.094305,0.38224,0.088091
6,0.130412,15.6812,0.019049,0.07077,0.39105,0.025038
6,0.134631,15.6913,0.0068876,0.057033,0.39355,-0.028138
6,0.139635,15.703,-0.0026402,0.052756,0.39074,-0.071919
6,0.144933,15.7126,-0.010213,0.056279,0.38354,-0.10827
6,0.148684,15.7164,-0.016287,0.065478,0.37272,-0.1385
6,0.150221,15.7114,-0.022154,0.078432,0.35887,-0.16757
6,0.147083,15.6967,-0.029225,0.093867,0.34211,-0.20113
6,0.137367,15.6761,-0.038998,0.11117,0.322,-0.24473
6,0.124156,15.6568,-0.052531,0.12997,0.29752,-0.30206
6,0.110292,15.6449,-0.069366,0.14895,0.26732,-0.37196
6,0.0969669,15.6437,-0.089184,0.16589,0.23012,-0.45458
6,0.0861408,15.6549,-0.11172,0.17905,0.18466,-0.54594
6,0.0780534,15.678,-0.13674,0.18859,0.13007,-0.64066
6,0.0721395,15.7109,-0.16365,0.19669,0.066002,-0.73332
6,0.0677998,15.7508,-0.19124,0.20591,-0.0073291,-0.81841
6,0.062683,15.7945,-0.21893,0.21819,-0.08917,-0.89627
6,0.0541855,15.8394,-0.2449,0.23423,-0.1788,-0.96205
6,0.0395746,15.8841,-0.26787,0.25197,-0.275,-1.0135
6,0.0170632,15.9284,-0.28962,0.26742,-0.37636,-1.0627
6,-0.0124185,15.972,-0.31137,0.27722,-0.48263,-1.1201
6,-0.0479559,16.013,-0.3334,0.27962,-0.59463,-1.186
6,-0.0888059,16.0494,-0.35671,0.27411,-0.71323,-1.2604
6,-0.133853,16.0802,-0.38143,0.26118,-0.83928,-1.3416
6,-0.182373,16.106,-0.40739,0.24211,-0.97343,-1.4282
6,-0.233805,16.1283,-0.43421,0.21895,-1.1163,-1.5196
6,-0.287633,16.1478,-0.45965,0.19428,-1.2682,-1.6072
6,-0.342719,16.1652,-0.48098,0.17061,-1.4289,-1.6797
6,-0.398373,16.1801,-0.49517,0.14916,-1.5969,-1.7257
6,-0.455074,16.1917,-0.50026,0.12928,-1.7695,-1.7378
6,-0.512446,16.1993,-0.49711,0.11033,-1.9433,-1.7187
6,-0.569831,16.203,-0.48701,0.092766,-2.1151,-1.6738
6,-0.627281,16.2032,-0.47115,0.077822,-2.2825,-1.6094
6,-0.684798,16.2004,-0.45043,0.067308,-2.4434,-1.5284
6,-0.742647,16.1952,-0.42495,0.062586,-2.5963,-1.4326
6,-0.800625,16.1887,-0.39477,0.064351,-2.7396,-1.325
6,-0.856617,16.1831,-0.36042,0.073249,-2.8721,-1.2054
6,-0.907768,16.1807,-0.32281,0.089494,-2.9926,-1.074
6,-0.950768,16.1824,-0.28198,0.1122,-3.1,-0.93094
6,-0.983459,16.187,-0.23771,0.13916,-3.1931,-0.77432
6,-1.00665,16.1926,-0.19143,0.16792,-3.2705,-0.60495
6,-1.02199,16.1985,-0.14452,0.19652,-3.331,-0.42815
6,-1.03111,16.205,-0.097745,0.22345,-3.3738,-0.25197
6,-1.03472,16.2148,-0.051728,0.24868,-3.399,-0.080697
6,-1.03227,16.2312,-0.006104,0.2733,-3.4071,0.089031
6,-1.02335,16.257,0.039424,0.29782,-3.3982,0.26016
6,-1.00847,16.2943,0.084203,0.32143,-3.3722,0.42932
6,-0.988336,16.3442,0.1271,0.34254,-3.3292,0.59104
6,-0.962337,16.4045,0.16671,0.36023,-3.2701,0.73954
6,-0.930497,16.47,0.20179,0.37506,-3.1962,0.86935
6,-0.895299,16.5352,0.23204,0.38937,-3.1093,0.97894
6,-0.858863,16.596,0.25836,0.40577,-3.0114,1.0743
6,-0.822771,16.6501,0.28172,0.42581,-2.9039,1.1605
6,-0.788253,16.6977,0.30162,0.44811,-2.7879,1.2315
6,-0.754855,16.7418,0.31685,0.46791,-2.6647,1.2833
6,-0.721776,16.7844,0.32667,0.48098,-2.5364,1.3185
6,-0.688211,16.826,0.33152,0.48503,-2.4045,1.3369
6,-0.653561,16.8657,0.33191,0.47914,-2.2709,1.3346
6,-0.617354,16.9028,0.32673,0.46449,-2.1374,1.3071
6,-0.579885,16.9371,0.31574,0.44526,-2.0067,1.2588
6,-0.542571,16.9713,0.30128,0.42628,-1.8808,1.1999
6,-0.505265,17.01,0.28551,0.41167,-1.7608,1.1343
6,-0.467678,17.0567,0.27003,0.40375,-1.6474,1.0692
6,-0.431489,17.111,0.25609,0.40068,-1.5405,1.008
6,-0.398577,17.167,0.24387,0.39863,-1.4397,0.94446
6,-0.370007,17.2189,0.23328,0.39584,-1.3452,0.87656
6,-0.345424,17.2644,0.22348,0.39363,-1.2576,0.80449
6,-0.324521,17.3024,0.21343,0.39453,-1.1771,0.72711
6,-0.308874,17.3335,0.20203,0.39966,-1.1044,0.64194
6,-0.299023,17.3605,0.18908,0.40899,-1.0402,0.54948
6,-0.292742,17.3877,0.17582,0.41955,-0.98525,0.45537
6,-0.287849,17.4194,0.1622,0.42694,-0.93972,0.3622
6,-0.282709,17.4576,0.1482,0.4276,-0.9035,0.27268
6,-0.276074,17.4991,0.13534,0.42065,-0.87623,0.19536
6,-0.267124,17.539,0.12477,0.41021,-0.85669,0.13296
6,-0.255218,17.576,0.11229,0.39529,-0.8434,0.061969
6,-0.241249,17.6132,0.10229,0.38279,-0.8372,-0.0058733
7,0.0481266,14.5993,-0.0069411,0.5934,0.28517,-0.2915
7,0.0484217,14.6791,-0.0089286,0.57515,0.25602,-0.29659
7,0.04885,14.7586,-0.010919,0.55653,0.22636,-0.29906
7,0.0493755,14.8349,-0.012929,0.53795,0.19646,-0.29558
7,0.0491258,14.9045,-0.014934,0.51967,0.1669,-0.28886
7,0.0473924,14.9653,-0.016943,0.50187,0.13801,-0.28206
7,0.0447213,15.0162,-0.018617,0.46694,0.10981,-0.26587
7,0.0418007,15.058,-0.020567,0.43129,0.083221,-0.24737
7,0.0386871,15.0924,-0.022674,0.395,0.058484,-0.22776
7,0.0354268,15.1207,-0.024819,0.35808,0.035708,-0.20874
7,0.032019,15.1442,-0.026961,0.32009,0.014835,-0.19201
7,0.0285022,15.1636,-0.029063,0.28094,-0.0043663,-0.17744
7,0.0248952,15.1797,-0.031045,0.24145,-0.02211,-0.16257
7,0.0212006,15.193,-0.032764,0.2035,-0.038367,-0.1455
7,0.0174597,15.204,-0.033574,0.16841,-0.052917,-0.12527
7,0.0136673,15.2131,-0.033178,0.13592,-0.065444,-0.10246
7,0.00981931,15.2206,-0.032455,0.10497,-0.07569,-0.080163
7,0.00595153,15.2268,-0.031443,0.074642,-0.083707,-0.058051
7,0.00205425,15.2321,-0.029309,0.045126,-0.089512,-0.033065
7,-0.00186745,15.2364,-0.026049,0.016931,-0.092818,-0.0053308
7,-0.00579617,15.2394,-0.022478,-0.010014,-0.093351,0.023301
7,-0.00970439,15.241,-0.019694,-0.036069,-0.091021,0.049037
7,-0.0132403,15.2415,-0.017964,-0.060967,-0.086118,0.068019
7,-0.0161523,15.2419,-0.01652,-0.083755,-0.079316,0.080454
7,-0.0180216,15.2413,-0.014739,-0.10365,-0.07127,0.089736
7,-0.0189626,15.2371,-0.012647,-0.1206,-0.062297,0.097807
7,-0.0201886,15.2261,-0.010384,-0.13513,-0.052516,0.10453
7,-0.0210844,15.2073,-0.0080044,-0.14779,-0.042063,0.10975
7,-0.0199301,15.1826,-0.0055162,-0.15895,-0.031089,0.11289
7,-0.0166719,15.1546,-0.0029379,-0.1688,-0.019799,0.11409
7,-0.0129367,15.1242,-0.00029166,-0.17732,-0.00839,0.11438
7,-0.0108864,15.0915,0.0023977,-0.1848,0.0030482,0.11242
7,-0.0110329,15.0578,0.0049384,-0.19208,0.01429,0.10397
7,-0.0118386,15.0255,0.0072047,-0.19997,0.024687,0.087072
7,-0.0120181,14.9967,0.0087111,-0.20763,0.033395,0.064081
7,-0.011627,14.9719,0.009523,-0.21236,0.039803,0.039684
7,-0.010948,14.9503,0.01082,-0.21074,0.043771,0.018565
7,-0.0100573,14.9312,0.011945,-0.20088,0.045627,-0.0024015
7,-0.0089782,14.9142,0.010803,-0.18418,0.045387,-0.031407
7,-0.0077433,14.8988,0.0069235,-0.16329,0.042247,-0.070387
7,-0.00637949,14.8848,0.0014302,-0.13948,0.035208,-0.11528
7,-0.00490904,14.8714,-0.0041079,-0.11254,0.02368,-0.1601
7,-0.00336353,14.8574,-0.0094001,-0.082396,0.0076698,-0.20258
7,-0.00174277,14.8419,-0.016167,-0.050211,-0.012588,-0.24632
7,-0.000599381,14.8261,-0.026122,-0.017471,-0.037221,-0.29599
7,8.33E-05,14.8124,-0.039214,0.015207,-0.06682,-0.35195
7,0.00145089,14.8047,-0.054651,0.047926,-0.10201,-0.41207
7,0.00280603,14.8055,-0.072002,0.080832,-0.14322,-0.475
7,0.00167641,14.8142,-0.090944,0.11377,-0.19072,-0.53829
7,-0.00282495,14.828,-0.11115,0.14682,-0.24455,-0.59931
7,-0.0100762,14.8452,-0.1327,0.18036,-0.30448,-0.65768
7,-0.0191022,14.8664,-0.15588,0.21497,-0.37025,-0.71358
7,-0.0298332,14.893,-0.18002,0.25202,-0.44161,-0.7636
7,-0.0441729,14.9251,-0.20446,0.29333,-0.51797,-0.80616
7,-0.064262,14.9617,-0.2293,0.33977,-0.59858,-0.84542
7,-0.0900549,15.0023,-0.25471,0.39059,-0.68313,-0.88538
7,-0.120251,15.0462,-0.28108,0.44304,-0.77166,-0.92781
7,-1.54E-01,15.0929,-0.30796,0.49402,-0.86445,-0.97068
7,-0.190865,15.1417,-0.33367,0.54275,-0.96151,-1.0076
7,-0.230038,15.1924,-0.35724,0.58974,-1.0623,-1.0351
7,-0.271776,15.2455,-0.37845,0.635,-1.1658,-1.0526
7,-0.316676,15.3013,-0.39692,0.67718,-1.271,-1.0583
7,-0.363403,15.3614,-0.4113,0.71435,-1.3769,-1.0489
7,-0.410666,15.4286,-0.41938,0.74591,-1.4818,-1.0218
7,-0.45919,15.5056,-0.41947,0.77269,-1.5839,-0.97798
7,-0.509335,15.5936,-0.41222,0.79558,-1.6817,-0.92161
7,-0.560717,15.6907,-0.39947,0.81503,-1.7739,-0.85632
7,-0.613121,15.7936,-0.38225,0.83144,-1.8595,-0.78421
7,-0.665673,15.8997,-0.36135,0.84544,-1.938,-0.70759
7,-0.717296,16.0075,-0.3375,0.85717,-2.0087,-0.63089
7,-0.766978,16.1152,-0.31057,0.86624,-2.0718,-0.55602
7,-0.812948,16.2208,-0.2799,0.87199,-2.1274,-0.48066
7,-0.852439,16.3217,-0.24688,0.8725,-2.1755,-0.4085
7,-0.882923,16.4169,-0.21285,0.86465,-2.2163,-0.34225
7,-0.903194,16.5071,-0.17701,0.84561,-2.2505,-0.27618
7,-0.914487,16.5934,-0.13906,0.81449,-2.2782,-0.20659
7,-0.919184,16.6762,-0.099482,0.77318,-2.2988,-0.13373
7,-0.918569,16.7558,-0.058693,0.72456,-2.3122,-0.058407
7,-0.913558,16.8326,-0.017124,0.67077,-2.318,0.018717
7,-0.90503,16.9068,0.025306,0.61367,-2.3162,0.098556
7,-0.89292,16.978,0.068647,0.55502,-2.3063,0.18127
7,-0.87648,17.0453,0.11156,0.49655,-2.2882,0.26075
7,-0.857153,17.1064,0.15097,0.43966,-2.2621,0.32673
7,-0.836361,17.1579,0.18389,0.38451,-2.2294,0.37369
7,-0.813211,17.1968,0.20933,0.33021,-2.1921,0.40731
7,-0.787452,17.2226,0.22865,0.27599,-2.1513,0.43523
7,-0.759681,17.2371,0.24366,0.2219,-2.1078,0.45951
7,-0.730506,17.2427,0.25524,0.1684,-2.0619,0.48163
7,-0.699922,17.2413,0.264,0.11559,-2.0137,0.50189
7,-0.666684,17.2348,0.27049,0.063456,-1.9635,0.51903
7,-0.629684,17.2253,0.27472,0.012496,-1.9116,0.52947
7,-0.589823,17.2139,0.2762,-0.03615,-1.8587,0.5286
7,-0.550489,17.201,0.27563,-0.080414,-1.8058,0.51619
7,-0.515146,17.1859,0.27368,-0.11781,-1.7542,0.49446
7,-0.484539,17.1676,0.26981,-0.14653,-1.7047,0.46561
7,-0.457191,17.1454,0.26399,-0.16652,-1.6582,0.43342
7,-0.431869,17.12,0.25666,-0.17965,-1.6148,0.40182
7,-0.408091,17.0926,0.24882,-0.1878,-1.5746,0.37739
7,-0.385564,17.0637,0.24102,-0.19201,-1.5369,0.36393
7,-0.364059,17.0337,0.2319,-0.19286,-1.5005,0.35527
7,-0.343478,17.003,0.22022,-0.19076,-1.465,0.34471
7,-0.32407,16.973,0.20642,-0.18654,-1.4305,0.33315
7,-0.305895,16.9456,0.19232,-0.18091,-1.3972,0.32598
7,-0.289003,16.9223,0.17944,-0.1737,-1.3646,0.3265
7,-0.273595,16.9038,0.16787,-0.1636,-1.332,0.33065
7,-0.259466,16.8895,0.15714,-0.14895,-1.2989,0.33266
7,-0.246356,16.8778,0.14714,-0.1287,-1.2656,0.32961
7,-0.232865,16.8671,0.13751,-0.10278,-1.2327,0.31819
7,-0.217887,16.8573,0.12787,-0.071772,-1.2008,0.29902
7,-0.202877,16.8491,0.11822,-0.036572,-1.1709,0.27944
7,-0.189249,16.8438,0.1086,0.0015112,-1.143,0.26661
7,-0.176987,16.8408,0.099434,0.041012,-1.1163,0.26657
7,-0.165844,16.8392,0.091314,0.0806,-1.0897,0.28781
7,-0.156256,16.8385,0.084591,0.11938,-1.0609,0.33207
7,-0.148799,16.8403,0.079285,0.15691,-1.0277,0.38946
7,-0.142906,16.8475,0.074447,0.17303,-0.98875,0.46395
7,-0.137583,16.8626,0.070475,0.18921,-0.94235,0.53649
7,-0.133074,16.887,0.066156,0.20682,-0.8887,0.59411
7,-0.129831,16.9202,0.060103,0.2262,-0.82929,0.62396
7,-0.127623,16.9606,0.052784,0.24659,-0.76689,0.62708
7,-0.126269,17.006,0.044842,0.26741,-0.70419,0.60947
7,-0.125202,17.055,0.036172,0.28975,-0.64324,0.57269
7,-0.123266,17.1068,0.026958,0.31544,-0.58597,0.51833
7,-0.119822,17.161,0.018682,0.34513,-0.53414,0.44979
7,-0.115025,17.2176,0.014954,0.3442,-0.48916,0.41394
7,-0.110572,17.2356,0.012639,0.35854,-0.44776,0.25043
7,-0.105405,17.2562,0.010384,0.37006,-0.42272,0.24554
7,-0.100553,17.2808,0.0083428,0.37748,-0.39817,0.24843
7,-0.0976817,17.3096,0.0068374,0.38034,-0.37332,0.26064
7,-0.0973079,17.3423,0.0058207,0.37879,-0.34726,0.27911
7,-0.0995653,17.3786,0.0052696,0.37337,-0.31935,0.30179
7,-0.104643,17.4203,0.0048542,0.36439,-0.28917,0.32568
7,-0.111927,17.47,0.0036456,0.35163,-0.2566,0.34106
7,-0.118892,17.5287,0.00084606,0.33429,-0.2225,0.34079
7,-0.118892,17.5287,0.00084606,0.33429,-0.18842,0.34079
8,0.00290919,16.2832,0.010363,0.20279,0.15538,-0.21541
8,0.00432157,16.3136,0.018895,0.22842,0.13384,-0.18125
8,0.00560596,16.341,0.033499,0.2452,0.11572,-0.13089
8,0.00677479,16.3658,0.052106,0.25777,0.10263,-0.072245
8,0.00783965,16.3883,0.069761,0.26866,0.095403,-0.020893
8,0.00881119,16.4088,0.082749,0.27907,0.093314,0.012566
8,0.00968256,16.4275,0.089693,0.28948,0.094571,0.024845
8,0.0104835,16.4445,0.090654,0.29956,0.097055,0.018299
8,0.0112351,16.4599,0.086614,0.3076,0.098885,-0.00033075
8,0.0111905,16.4735,0.078757,0.31208,0.098852,-0.024622
8,0.0132718,16.4859,0.068535,0.31214,0.09639,-0.18236
8,0.0236938,16.5344,0.058675,0.3078,0.078154,-0.19561
8,0.0431083,16.5774,0.045261,0.30078,0.058592,-0.20716
8,0.0706466,16.6183,0.028089,0.29213,0.037877,-0.22263
8,0.100575,16.6593,0.0075823,0.2826,0.015614,-0.24333
8,0.127032,16.7018,-0.015561,0.27257,-0.0087195,-0.26884
8,0.146418,16.7463,-0.040861,0.26202,-0.035604,-0.29955
8,0.15702,16.7924,-0.067964,0.25089,-0.065558,-0.33584
8,0.158815,16.8368,-0.096748,0.23999,-0.099143,-0.37806
8,0.152548,16.8761,-0.12607,0.23136,-0.13695,-0.41921
8,0.139979,16.9074,-0.15775,0.22687,-0.17887,-0.46671
8,0.121671,16.9292,-0.19626,0.20923,-0.22554,-0.53722
8,0.0961271,16.9426,-0.24247,0.19991,-0.27926,-0.63965
8,0.0629524,16.9501,-0.29494,0.19762,-0.34323,-0.76813
8,0.0230042,16.9535,-0.34812,0.20108,-0.42004,-0.90111
8,-0.0223107,16.9539,-0.39663,0.20838,-0.51015,-1.0192
8,-0.072039,16.9515,-0.43706,0.21779,-0.61207,-1.1108
8,-0.125445,16.9463,-0.46786,0.22926,-0.72315,-1.1714
8,-0.182261,16.9399,-0.48912,0.24533,-0.8403,-1.2036
8,-0.240952,16.9362,-0.50146,0.26807,-0.96065,-1.2118
8,-0.302219,16.9397,-0.50708,0.29822,-1.0818,-1.2076
8,-0.368816,16.9529,-0.50725,0.33551,-1.2026,-1.199
8,-0.441837,16.9772,-0.50105,0.3771,-1.3225,-1.1839
8,-0.519224,17.0135,-0.48818,0.41922,-1.4409,-1.1603
8,-0.595668,17.0614,-0.46895,0.4599,-1.5569,-1.127
8,-0.666227,17.1185,-0.44458,0.49942,-1.6696,-1.0849
8,-0.727704,17.1819,-0.41598,0.53881,-1.7781,-1.0313
8,-0.778708,17.2509,-0.38386,0.57868,-1.8812,-0.96758
8,-0.819427,17.3275,-0.34858,0.61786,-1.978,-0.89809
8,-0.850375,17.4123,-0.31115,0.65258,-2.0678,-0.83405
8,-0.874188,17.5039,-0.27143,0.67853,-2.1512,-0.7723
8,-0.892822,17.6002,-0.228,0.69244,-2.2284,-0.69489
8,-0.905973,17.6968,-0.18022,0.69199,-2.2979,-0.59337
8,-0.913417,17.7885,-0.12935,0.67558,-2.3573,-0.47261
8,-0.914903,17.8733,-0.078153,0.64313,-2.4045,-0.34691
8,-0.911473,17.9528,-0.029196,0.59718,-2.4392,-0.22694
8,-0.904002,18.0291,0.0158,0.5409,-2.4619,-0.11805
8,-0.893163,18.1037,0.056025,0.47587,-2.4737,-0.022479
8,-0.879418,18.1756,0.091414,0.40217,-2.476,0.058443
8,-0.863243,18.2414,0.12205,0.32102,-2.4701,0.12394
8,-0.845084,18.2968,0.14979,0.23483,-2.4577,0.1834
8,-0.824811,18.3378,0.17639,0.14626,-2.4394,0.24756
8,-0.802287,18.3612,0.20178,0.059263,-2.4146,0.31988
8,-0.777915,18.3647,0.22451,-0.021785,-2.3826,0.39714
8,-0.751975,18.3477,0.24266,-0.095545,-2.3429,0.47109
8,-0.724619,18.3129,0.25674,-0.16455,-2.2958,0.53922
8,-0.696104,18.2637,0.2681,-0.23155,-2.2419,0.59882
8,-0.666658,18.2027,0.27677,-0.29716,-2.182,0.64674
8,-0.636599,18.1318,0.28213,-0.35975,-2.1173,0.68286
8,-0.60627,18.0543,0.2841,-0.41611,-2.0491,0.71428
8,-0.574599,17.9735,0.28195,-0.46296,-1.9776,0.73886
8,-0.54004,17.8927,0.27453,-0.49806,-1.9037,0.74589
8,-0.502421,17.8153,0.26135,-0.52014,-1.8291,0.73004
8,-0.464391,17.745,0.24258,-0.5286,-1.7561,0.69047
8,-0.429586,17.6823,0.21904,-0.52367,-1.6871,0.63191
8,-0.398003,17.6237,0.1916,-0.50708,-1.6239,0.55983
8,-0.367794,17.566,0.16101,-0.48132,-1.5679,0.4769
8,-0.339632,17.5094,0.12801,-0.44864,-1.5202,0.38585
8,-0.315162,17.4561,0.093232,-0.4112,-1.4816,0.28981
8,-0.295038,17.4092,0.057036,-0.37125,-1.4527,0.18956
8,-0.281193,17.3708,0.019051,-0.33035,-1.4337,0.082222
8,-0.275742,17.3416,-0.021488,-0.2894,-1.4255,-0.035391
8,-0.279589,17.3209,-0.064192,-0.2498,-1.429,-0.16322
8,-0.292762,17.3075,-0.10633,-0.21363,-1.4454,-0.29407
8,-0.3139,17.3004,-0.14483,-0.18172,-1.4748,-0.41773
8,-0.341416,17.2987,-0.17981,-0.1521,-1.5165,-0.53275
8,-0.37409,17.3011,-0.21311,-0.12157,-1.5698,-0.64201
8,-0.410636,17.3054,-0.24354,-0.088768,-1.634,-0.73912
8,-0.450136,17.3094,-0.26873,-0.054699,-1.7079,-0.81562
8,-0.492198,17.3118,-0.28768,-0.021001,-1.7895,-0.87067
8,-0.536497,17.3128,-0.29921,0.010859,-1.8765,-0.90326
8,-0.583015,17.3139,-0.30279,0.039868,-1.9669,-0.91373
8,-0.630805,17.3157,-0.29869,0.065847,-2.0582,-0.90217
8,-0.677052,17.3177,-0.28743,0.089174,-2.1485,-0.86574
8,-0.719246,17.3188,-0.27013,0.11018,-2.235,-0.80705
8,-0.757627,17.3195,-0.2479,0.12918,-2.3157,-0.73239
8,-0.794012,17.3229,-0.22157,0.14666,-2.389,-0.64532
8,-0.826718,17.3318,-0.19214,0.16325,-2.4535,-0.55038
8,-0.852629,17.3467,-0.16064,0.17957,-2.5086,-0.45193
8,-0.870406,17.3672,-0.12772,0.19595,-2.5537,-0.34985
8,-0.879611,17.3925,-0.093675,0.2118,-2.5887,-0.24433
8,-0.881316,17.4214,-0.058423,0.22676,-2.6132,-0.13875
8,-0.876975,17.4526,-0.022436,0.24179,-2.627,-0.035927
8,-0.867632,17.4858,0.012331,0.25839,-2.6306,0.060383
8,-0.854151,17.5207,0.044106,0.27755,-2.6246,0.14593
8,-0.837207,17.5571,0.072998,0.29807,-2.61,0.22095
8,-0.817228,17.5944,0.10003,0.31611,-2.5879,0.28851
8,-0.794921,17.6319,0.12405,0.32863,-2.5591,0.34485
8,-0.771414,17.6686,0.14318,0.33467,-2.5246,0.38396
8,-0.747636,17.7037,0.15648,0.33342,-2.4862,0.40291
8,-0.723846,17.7364,0.16376,0.32477,-2.4459,0.40238
8,-0.699861,17.7674,0.1661,0.30983,-2.4056,0.38838
8,-0.675676,17.7993,0.16453,0.29018,-2.3668,0.36537
8,-0.652391,17.8345,0.15973,0.26649,-2.3303,0.33435
8,-0.631035,17.8739,0.15226,0.23787,-2.2968,0.29686
8,-0.61163,17.9156,0.1428,0.20383,-2.2671,0.25626
8,-0.593959,17.9551,0.13228,0.16576,-2.2415,0.21567
8,-0.578615,17.9891,0.1219,0.1268,-2.22,0.17927
8,-0.566278,18.016,0.11289,0.090087,-2.202,0.15144
8,-0.557453,18.034,0.10599,0.057199,-2.1869,0.13332
8,-0.552101,18.0421,0.10082,0.02932,-2.1736,0.12312
8,-0.549121,18.041,0.096795,0.0065532,-2.1612,0.12346
8,-0.547919,18.033,0.093698,-0.013571,-2.1489,0.13609
8,-0.548175,18.0188,0.092321,-0.033583,-2.1353,0.16022
8,-0.549637,17.9965,0.093557,-0.054165,-2.1193,0.19602
8,-0.55161,17.9647,0.097522,-0.073996,-2.0997,0.24273
8,-0.552664,17.9259,0.10395,-0.091066,-2.0754,0.29934
8,-0.551126,17.8855,0.11231,-0.10536,-2.0455,0.36348
8,-0.545643,17.8487,0.122,-0.11806,-2.0091,0.43232
8,-0.535657,17.8181,0.13297,-0.12948,-1.9659,0.50568
8,-0.522198,17.7951,0.14537,-0.13975,-1.9153,0.5841
8,-0.506272,17.7805,0.1587,-0.14917,-1.8569,0.66567
8,-0.48828,17.7721,0.17273,-0.1583,-1.7903,0.74867
8,-0.467749,17.7673,0.18733,-0.16667,-1.7155,0.83163
8,-0.44392,17.7656,0.20241,-0.1714,-1.6323,0.91234
8,-0.416587,17.7677,0.21738,-0.17045,-1.5411,0.98655
8,-0.386064,17.773,0.23076,-0.1652,-1.4424,1.0491
8,-0.353996,17.7784,0.24091,-0.15985,-1.3375,1.0956
8,-0.322281,17.7799,0.24676,-0.15817,-1.2279,1.1233
8,-0.291516,17.7751,0.24814,-0.1607,-1.1156,1.1323
8,-0.261366,17.7626,0.24612,-0.15317,-1.0024,1.134
8,-0.231726,17.7427,0.2418,-0.15204,-0.88898,1.1222
8,-0.202467,17.7164,0.23549,-0.15728,-0.77675,1.0939
8,-0.17351,17.6855,0.22717,-0.16842,-0.66737,1.0509
8,-0.144817,17.6537,0.21652,-0.18557,-0.56227,0.99583
8,-0.116855,17.6239,0.20305,-0.2086,-0.46269,0.92997
8,-0.0911425,17.5955,0.18669,-0.23614,-0.36969,0.85345
8,-0.0693057,17.5658,0.16891,-0.26529,-0.28435,0.7711
8,-0.0521225,17.5324,0.15164,-0.2926,-0.20724,0.6895
8,-0.0393684,17.4967,0.13626,-0.29018,-0.13829,0.61765
8,-0.0299676,17.4887,0.12757,-0.29888,-0.076524,0.44153
8,-0.022667,17.4764,0.11819,-0.30444,-0.032371,0.41283
9,0.19963,11.0217,-0.091553,0.15577,0.28879,-0.14121
9,0.196566,11.0366,-0.10416,0.15579,0.27466,-0.10952
9,0.190188,11.0555,-0.11887,0.15574,0.26371,-0.099205
9,0.179107,11.0788,-0.13403,0.15971,0.25379,-0.099457
9,0.16349,11.1058,-0.14835,0.17272,0.24385,-0.1037
9,0.145451,11.1347,-0.16157,0.19529,0.23348,-0.11119
9,0.125724,11.163,-0.17491,0.22311,0.22236,-0.12369
9,0.104429,11.1879,-0.18853,0.25218,0.20999,-0.14085
9,0.0829826,11.2071,-0.20197,0.28049,0.1959,-0.17026
9,0.061647,11.2202,-0.21526,0.30758,0.17888,-0.22551
9,0.0379159,11.2288,-0.2273,0.33263,0.15633,-0.30784
9,0.00912323,11.2373,-0.23629,0.35344,0.12554,-0.40964
9,-0.0232777,11.2509,-0.24163,0.36737,0.084578,-0.52514
9,-0.0566762,11.274,-0.24237,0.37287,0.032064,-0.64351
9,-0.0883202,11.3123,-0.23862,0.3706,-0.032287,-0.76114
9,-0.117513,11.3659,-0.23202,0.36298,-0.1084,-0.8827
9,-0.146374,11.4285,-0.2233,0.3521,-0.19667,-1.0098
9,-0.175042,11.4943,-0.2126,0.33927,-0.29765,-1.1411
9,-0.202943,11.5599,-0.20088,0.32604,-0.41176,-1.2733
9,-0.23,11.6246,-0.18851,0.31484,-0.53909,-1.3935
9,-0.254963,11.6869,-0.17291,0.30704,-0.67844,-1.473
9,-0.27601,11.7435,-0.15148,0.30049,-0.82574,-1.4884
9,-0.293065,11.7902,-0.12614,0.2914,-0.97458,-1.4493
9,-0.305635,11.8245,-0.099498,0.2754,-1.1195,-1.3763
9,-0.313756,11.847,-0.074658,0.24664,-1.2571,-1.2902
9,-0.318593,11.8607,-0.052516,0.20447,-1.3862,-1.1988
9,-0.32087,11.8673,-0.030981,0.15475,-1.506,-1.0955
9,-0.320766,11.8665,-0.0097631,0.10367,-1.6156,-0.97983
9,-0.318771,11.8591,0.010692,0.055156,-1.7136,-0.85194
9,-0.315371,11.8499,0.030089,0.010066,-1.7988,-0.70917
9,-0.307899,11.8429,0.047635,-0.031165,-1.8697,-0.55313
9,-0.293846,11.8383,0.062388,-0.066136,-1.925,-0.38852
9,-0.275548,11.8337,0.074842,-0.091619,-1.9638,-0.21489
9,-0.255672,11.8248,0.085192,-0.10545,-1.9853,-0.034819
9,-0.237637,11.8056,0.093378,-0.10814,-1.9888,0.14867
9,-0.222545,11.7748,0.099611,-0.10239,-1.9739,0.33398
9,-0.208336,11.738,0.10421,-0.089585,-1.9406,0.52148
9,-0.194568,11.7016,0.1073,-0.069557,-1.8884,0.71027
9,-0.181559,11.6703,0.10905,-0.043098,-1.8174,0.89425
9,-0.169823,11.6447,0.1099,-0.01391,-1.7279,1.0633
9,-0.159693,11.6246,0.10841,0.014395,-1.6216,1.1967
9,-0.151234,11.6112,0.1029,0.040516,-1.502,1.275
9,-0.14338,11.607,0.094737,0.064902,-1.3745,1.3027
9,-0.135251,11.6136,0.08525,0.090466,-1.2442,1.2941
9,-0.126999,11.6307,0.076296,0.12232,-1.1148,1.269
9,-0.11937,11.6559,0.069106,0.16313,-0.98788,1.2407
9,-0.11244,11.6881,0.062619,0.21083,-0.8638,1.2047
9,-0.106167,11.7273,0.056199,0.26112,-0.74333,1.1559
9,-0.100675,11.7729,0.049881,0.31028,-0.62774,1.0955
9,-0.0955787,11.822,0.044279,0.35723,-0.51819,1.0283
9,-0.0910864,11.8717,0.039105,0.40275,-0.41536,0.95507
9,-0.0880413,11.9194,0.033075,0.44758,-0.31986,0.87141
9,-0.0860749,11.9635,0.024473,0.49184,-0.23272,0.77065
9,-0.0851721,12.0057,0.011763,0.53564,-0.15565,0.64683
9,-0.0850439,12.0502,-0.0059185,0.57991,-0.090968,0.49753
9,-0.0843323,12.1011,-0.028061,0.62558,-0.041215,0.32668
9,-0.0830987,12.1596,-0.053802,0.6724,-0.0085467,0.14039
9,-0.0821704,12.2238,-0.082751,0.7194,0.0054921,-0.058254
9,-0.0817972,12.2908,-0.1145,0.76616,-0.00033323,-0.26719
9,-0.0812648,12.3592,-0.1486,0.81331,-0.027052,-0.48113
9,-0.0814824,12.4301,-0.18421,0.86109,-0.075165,-0.69045
9,-0.0850845,12.5064,-0.21974,0.90864,-0.14421,-0.88595
9,-0.0944348,12.5907,-0.25432,0.95462,-0.2328,-1.0668
9,-0.111725,12.6849,-0.28711,0.99651,-0.33948,-1.2344
9,-0.138836,12.7905,-0.31712,1.0302,-0.46292,-1.3917
9,-0.175492,12.907,-0.3441,1.0522,-0.60209,-1.5449
9,-0.220044,13.0329,-0.3677,1.062,-0.75658,-1.6929
9,-0.271669,13.1661,-0.388,1.062,-0.92587,-1.8327
9,-0.329684,13.3053,-0.40555,1.0554,-1.1091,-1.9649
9,-0.392774,13.4487,-0.42134,1.0445,-1.3056,-2.0931
9,-0.459498,13.5939,-0.43474,1.0298,-1.5149,-2.2139
9,-0.52753,13.7366,-0.4437,1.0097,-1.7363,-2.3193
9,-0.594722,13.8728,-0.44469,0.98252,-1.9683,-2.3927
9,-0.659389,13.9988,-0.43345,0.94661,-2.2075,-2.4114
9,-0.719284,14.1105,-0.40718,0.90078,-2.4487,-2.3604
9,-0.772531,14.2054,-0.36706,0.84535,-2.6847,-2.2439
9,-0.81849,14.2837,-0.31745,0.7821,-2.9091,-2.0838
9,-0.858168,14.3479,-0.26132,0.71307,-3.1175,-1.8951
9,-0.892889,14.4016,-0.19945,0.63957,-3.307,-1.6778
9,-0.923955,14.4482,-0.13235,0.56249,-3.4748,-1.4328
9,-0.950958,14.4897,-0.061549,0.48345,-3.618,-1.1686
9,-0.972494,14.5258,0.010647,0.40638,-3.7349,-0.89161
9,-0.983808,14.5557,0.082179,0.33566,-3.8241,-0.60376
9,-0.978624,14.5781,0.15157,0.27432,-3.8844,-0.30817
9,-0.953197,14.5921,0.21653,0.2255,-3.9153,-0.010543
9,-0.909616,14.5977,0.27465,0.19079,-3.9163,0.28483
9,-0.854952,14.5971,0.32529,0.16919,-3.8878,0.57615
9,-0.794317,14.5923,0.36976,0.15837,-3.8302,0.86356
9,-0.728586,14.5844,0.4094,0.15534,-3.7439,1.1493
9,-0.657479,14.5736,0.44535,0.1572,-3.6289,1.432
9,-0.582596,14.5608,0.47765,0.16174,-3.4857,1.7028
9,-0.506236,14.5494,0.50588,0.16824,-3.3155,1.953
9,-0.430364,14.5441,0.52604,0.17695,-3.1202,2.1612
9,-0.356252,14.5474,0.53272,0.18837,-2.904,2.3002
9,-0.286215,14.5615,0.52305,0.20302,-2.674,2.3571
9,-0.223234,14.587,0.49903,0.22114,-2.4383,2.3409
9,-0.167907,14.6221,0.46712,0.24261,-2.2042,2.2799
9,-0.118649,14.6646,0.43264,0.26747,-1.9762,2.1988
9,-0.0740815,14.7123,0.39666,0.29635,-1.7563,2.1009
9,-0.0332508,14.7626,0.35841,0.32971,-1.5462,1.982
9,0.00434433,14.8131,0.31846,0.36684,-1.348,1.8444
9,0.0392626,14.8623,0.27776,0.40502,-1.1636,1.6912
9,0.068268,14.9096,0.2373,0.44105,-0.99449,1.527
9,0.0868143,14.9549,0.19772,0.47324,-0.84179,1.3544
9,0.0929044,14.9981,0.15975,0.5013,-0.70635,1.1706
9,0.0884397,15.04,0.12495,0.52654,-0.58929,0.97807
9,0.0792839,15.0823,0.094158,0.55134,-0.49148,0.787
9,0.0709594,15.1272,0.067045,0.5457,-0.41278,0.5958
9,0.064744,15.1771,0.041946,0.53874,-0.3532,0.39497
9,0.059339,15.2331,0.018288,0.53203,-0.3137,0.18883
9,0.0543147,15.2944,-0.00425,0.52708,-0.29482,-0.0083514
10,0.0256445,16.3442,0.062753,0.83804,0.26209,-0.073655
10,0.0580884,16.4838,0.06778,0.88331,0.25473,-0.095107
10,0.0805403,16.6095,0.070863,0.91864,0.24522,-0.12004
10,0.0917036,16.7178,0.071998,0.94412,0.23321,-0.14329
10,0.0943138,16.8089,0.072215,0.96038,0.21888,-0.15853
10,0.0947833,16.888,0.071996,0.96791,0.20303,-0.16323
10,0.0945442,16.9593,0.070377,0.96694,0.18671,-0.16411
10,0.0933625,17.0241,0.066584,0.95768,0.1703,-0.16715
10,0.0916708,17.0823,0.06015,0.9405,0.15358,-0.17511
10,0.0899455,17.1344,0.05074,0.91582,0.13607,-0.18984
10,0.0883974,17.1823,0.039972,0.8853,0.11709,-0.18974
10,0.100203,17.3159,0.015704,0.82516,0.098114,-0.28393
10,0.11068,17.4466,-0.0021986,0.76915,0.069721,-0.35474
10,0.119242,17.5716,-0.011908,0.72141,0.034248,-0.39676
10,0.126746,17.6888,-0.014904,0.6827,-0.0054286,-0.41559
10,0.133638,17.7961,-0.016156,0.65012,-0.046988,-0.4291
10,0.138248,17.8913,-0.016792,0.62132,-0.089898,-0.43977
10,0.138836,17.9723,-0.01657,0.59627,-0.13388,-0.43986
10,0.133914,18.0371,-0.016029,0.57541,-0.17786,-0.42506
10,0.12205,18.0843,-0.015747,0.55769,-0.22037,-0.39294
10,0.105588,18.1148,-0.015869,0.54115,-0.25966,-0.34163
10,0.0894955,18.1341,-0.022927,0.48034,-0.29382,-0.29377
10,0.076143,18.1478,-0.029536,0.41986,-0.3232,-0.2369
10,0.0678872,18.1606,-0.035365,0.3614,-0.34689,-0.17842
10,0.0645058,18.1744,-0.040819,0.30615,-0.36473,-0.12727
10,0.0624719,18.1882,-0.046101,0.25537,-0.37746,-0.08924
10,0.0609604,18.202,-0.050352,0.21025,-0.38638,-0.059148
10,0.0602232,18.2167,-0.052566,0.17158,-0.3923,-0.031047
10,0.0596134,18.2331,-0.051996,0.13962,-0.3954,-0.001507
10,0.0584509,18.2498,-0.048023,0.11429,-0.39555,0.032665
10,0.0566599,18.2646,-0.041821,0.094286,-0.39229,0.069319
10,0.0543491,18.2765,-0.03588,0.076296,-0.38536,0.10303
10,0.0516082,18.2863,-0.031466,0.056951,-0.37505,0.13123
10,0.0485116,18.2944,-0.029723,0.033926,-0.36193,0.15065
10,0.0451075,18.3011,-0.030407,0.0067108,-0.34686,0.16204
10,0.0414358,18.3068,-0.031762,-0.023747,-0.33066,0.17146
10,0.0375428,18.3118,-0.033376,-0.057229,-0.31351,0.17977
10,0.0337037,18.3154,-0.035278,-0.094575,-0.29554,0.1839
10,0.0299222,18.3164,-0.036963,-0.13644,-0.27715,0.18247
10,0.0260042,18.3129,-0.038285,-0.18158,-0.2589,0.17344
10,0.0219469,18.3034,-0.039714,-0.2274,-0.24156,0.15351
10,0.0177348,18.2867,-0.04187,-0.27189,-0.22621,0.12217
10,0.0132106,18.2617,-0.045036,-0.31417,-0.21399,0.083323
10,0.00844114,18.2284,-0.048833,-0.35461,-0.20566,0.042695
10,0.00369265,18.1878,-0.05277,-0.39492,-0.20139,0.0057998
10,-0.00105168,18.1408,-0.057054,-0.43721,-0.20081,-0.025821
10,-0.00579257,18.0875,-0.062335,-0.48291,-0.20339,-0.0563
10,-0.0103332,18.0275,-0.069067,-0.53256,-0.20902,-0.087666
10,-0.0143133,17.9602,-0.077268,-0.58492,-0.21779,-0.1201
10,-0.0181192,17.8866,-0.086784,-0.63705,-0.2298,-0.15398
10,-0.0227681,17.8098,-0.097414,-0.68615,-0.24519,-0.19009
10,-0.0293913,17.7328,-0.10887,-0.73024,-0.2642,-0.2296
10,-0.0384636,17.658,-0.1208,-0.76811,-0.28716,-0.27245
10,-0.049154,17.5852,-0.13316,-0.79928,-0.31441,-0.31824
10,-0.0604329,17.5112,-0.14609,-0.82432,-0.34623,-0.36678
10,-0.0726724,17.4324,-0.15948,-0.84415,-0.38291,-0.41815
10,-0.087128,17.346,-0.17326,-0.85974,-0.42472,-0.47182
10,-0.10443,17.2503,-0.18752,-0.87042,-0.47191,-0.52712
10,-0.124614,17.1465,-0.20238,-0.87343,-0.52462,-0.58378
10,-0.147564,17.0388,-0.21754,-0.86761,-0.583,-0.64185
10,-0.17288,16.9311,-0.23249,-0.85568,-0.64718,-0.70012
10,-0.199997,16.8262,-0.24625,-0.84285,-0.71719,-0.75424
10,-0.228392,16.7255,-0.2582,-0.83356,-0.79262,-0.80221
10,-0.257871,16.6299,-0.26907,-0.82789,-0.87284,-0.84765
10,-0.288484,16.5391,-0.27977,-0.82218,-0.9576,-0.89439
10,-0.320021,16.4524,-0.28997,-0.81235,-1.047,-0.94142
10,-0.352311,16.368,-0.29857,-0.79477,-1.1412,-0.9838
10,-0.38538,16.2867,-0.30498,-0.76637,-1.2396,-1.0187
10,-0.419081,16.2133,-0.30907,-0.72673,-1.3414,-1.0454
10,-0.4532,16.1514,-0.31101,-0.67869,-1.446,-1.0641
10,-0.487756,16.0984,-0.31119,-0.62528,-1.5524,-1.0758
10,-0.521885,16.047,-0.31004,-0.56965,-1.66,-1.0813
10,-0.554857,15.9908,-0.3079,-0.51508,-1.7681,-1.0818
10,-0.587293,15.9294,-0.30451,-0.46393,-1.8763,-1.0754
10,-0.619971,15.8669,-0.29931,-0.41583,-1.9838,-1.0597
10,-0.652611,15.8077,-0.29236,-0.36828,-2.0898,-1.0338
10,-0.684273,15.7565,-0.28348,-0.31821,-2.1932,-0.99735
10,-0.714388,15.7176,-0.27199,-0.26544,-2.2929,-0.94999
10,-0.742762,15.6931,-0.25742,-0.2141,-2.3879,-0.89146
10,-0.769579,15.6814,-0.23961,-0.16742,-2.477,-0.8193
10,-0.795252,15.6805,-0.21853,-0.12415,-2.559,-0.73288
10,-0.82007,15.6869,-0.19497,-0.079212,-2.6323,-0.6373
10,-0.844195,15.6954,-0.16976,-0.028045,-2.696,-0.53555
10,-0.86689,15.702,-0.14296,0.029329,-2.7495,-0.42562
10,-0.887113,15.7075,-0.11455,0.089947,-2.7921,-0.30602
10,-0.904738,15.7159,-0.084812,0.15166,-2.8227,-0.17716
10,-0.919266,15.7316,-0.054112,0.21209,-2.8404,-0.044067
10,-0.92935,15.7558,-0.022976,0.26801,-2.8448,0.087134
10,-0.933928,15.7851,0.0083101,0.317,-2.8361,0.21516
10,-0.932424,15.8166,0.040003,0.3587,-2.8146,0.34093
10,-0.924809,15.8501,0.072244,0.39361,-2.7805,0.46566
10,-0.911824,15.8886,0.10495,0.42458,-2.7339,0.58971
10,-0.894382,15.9348,0.13804,0.45615,-2.675,0.71284
10,-0.873214,15.988,0.17059,0.49195,-2.6037,0.829
10,-0.849068,16.0467,0.20134,0.53086,-2.5208,0.93068
10,-0.822236,16.1111,0.23027,0.56794,-2.4277,1.018
10,-0.792497,16.1806,0.2569,0.59833,-2.3259,1.0902
10,-0.760339,16.2536,0.27992,0.62065,-2.2169,1.1445
10,-0.726142,16.3271,0.29894,0.63824,-2.1025,1.181
10,-0.689573,16.3988,0.31437,0.65453,-1.9844,1.2018
10,-0.650765,16.4678,0.32718,0.67184,-1.8642,1.2109
10,-0.610171,16.536,0.33882,0.68963,-1.7431,1.215
10,-0.568112,16.6077,0.34921,0.70476,-1.6216,1.2137
10,-0.525711,16.6859,0.35728,0.71552,-1.5002,1.2022
10,-0.484434,16.7692,0.36239,0.72089,-1.38,1.1779
10,-0.444193,16.8518,0.36335,0.71869,-1.2622,1.1372
10,-0.405466,16.9283,0.35914,0.70707,-1.1485,1.0821
10,-0.369507,16.9971,0.35035,0.68594,-1.0403,1.0198
10,-0.336047,17.0616,0.33774,0.65783,-0.93828,0.95202
10,-0.303681,17.1256,0.32171,0.62601,-0.84308,0.87989
10,-0.270457,17.1938,0.30384,0.59273,-0.75509,0.8032
10,-0.234179,17.2679,0.28538,0.55821,-0.67477,0.72423
10,-0.195954,17.3443,0.26663,0.52113,-0.60234,0.64689
10,-0.158659,17.4191,0.24816,0.47993,-0.53766,0.57295
10,-0.124291,17.4885,0.23063,0.43569,-0.48036,0.50454
10,-0.0955441,17.5484,0.2133,0.39177,-0.42991,0.43462
10,-0.0742237,17.5948,0.19536,0.35031,-0.38645,0.35552
10,-0.0596395,17.6255,0.17676,0.31051,-0.35089,0.27104
10,-0.0506542,17.6427,0.15743,0.26946,-0.32379,0.18798
10,-0.046143,17.6508,0.13672,0.22524,-0.30499,0.10503
10,-0.0430822,17.6532,0.11313,0.1756,-0.29449,0.018072
10,-0.0394181,17.6525,0.08488,0.11998,-0.29268,-0.078759
11,0.065709,15.4845,-0.12228,0.75356,0.29446,-0.82888
11,0.0545961,15.5764,-0.11796,0.78279,0.21158,-0.81379
11,0.045995,15.6733,-0.11171,0.80339,0.1302,-0.77745
11,0.0394719,15.7732,-0.10387,0.81707,0.052453,-0.71912
11,0.0346677,15.8745,-0.094706,0.82527,-0.019459,-0.64241
11,0.0313383,15.9768,-0.084283,0.82918,-0.0837,-0.55332
11,0.0295843,16.0794,-0.072884,0.82915,-0.13903,-0.45804
11,0.0291204,16.1802,-0.061795,0.824,-0.18484,-0.36639
11,0.0286445,16.2768,-0.053155,0.81199,-0.22147,-0.28946
11,0.0270926,16.367,-0.048633,0.79167,-0.25042,-0.23272
11,0.0246505,16.45,-0.048584,0.76227,-0.27369,-0.19682
11,0.0218273,16.5263,-0.051919,0.7241,-0.29337,-0.17687
11,0.0187283,16.5971,-0.057456,0.67803,-0.31106,-0.16928
11,0.0154145,16.6635,-0.064622,0.62592,-0.32799,-0.17217
11,0.0119228,16.7266,-0.072887,0.5701,-0.34521,-0.18228
11,0.00840239,16.7871,-0.082008,0.51223,-0.36343,-0.19683
11,0.0049373,16.8449,-0.091936,0.45365,-0.38312,-0.2145
11,0.000780855,16.8984,-0.10245,0.3955,-0.40457,-0.23447
11,-0.00590864,16.9451,-0.11291,0.33875,-0.42801,-0.25402
11,-0.0166284,16.9825,-0.12286,0.28438,-0.45342,-0.27222
11,-0.031459,17.009,-0.13247,0.23285,-0.48064,-0.2921
11,-0.0492427,17.0245,-0.14199,0.184,-0.50985,-0.31605
11,-0.0689167,17.0293,-0.15146,0.1374,-0.54145,-0.34624
11,-0.0897727,17.025,-0.16088,0.092602,-0.57608,-0.38384
11,-0.111107,17.0147,-0.17034,0.048934,-0.61446,-0.42788
11,-0.132678,17.0012,-0.17962,0.0055701,-0.65725,-0.47488
11,-0.154287,16.9867,-0.18796,-0.037457,-0.70474,-0.51861
11,-0.175784,16.9712,-0.19437,-0.078383,-0.7566,-0.55235
11,-0.197173,16.9543,-0.1974,-0.11403,-0.81183,-0.56976
11,-0.21862,16.9358,-0.1961,-0.1412,-0.86881,-0.56882
11,-0.240284,16.9157,-0.19124,-0.15772,-0.92569,-0.55323
11,-0.262154,16.8943,-0.18432,-0.16214,-0.98101,-0.52798
11,-0.284183,16.8719,-0.17661,-0.15314,-1.0338,-0.49753
11,-0.306342,16.8487,-0.16923,-0.132,-1.0836,-0.46604
11,-0.328767,16.8245,-0.16272,-0.10328,-1.1302,-0.43643
11,-0.350845,16.7983,-0.15712,-0.071834,-1.1738,-0.41106
11,-0.370993,16.77,-0.15243,-0.040019,-1.2149,-0.3902
11,-0.387949,16.7416,-0.14832,-0.0073424,-1.2539,-0.37169
11,-0.400714,16.717,-0.14432,0.026863,-1.2911,-0.35407
11,-0.408825,16.7001,-0.14028,0.062479,-1.3265,-0.33671
11,-0.41393,16.6936,-0.13635,0.099037,-1.3602,-0.31915
11,-0.41789,16.7003,-0.13272,0.13664,-1.3921,-0.30201
11,-0.422139,16.723,-0.12918,0.17495,-1.4223,-0.28604
11,-0.428235,16.761,-0.12536,0.21212,-1.4509,-0.26982
11,-0.436542,16.8082,-0.12072,0.24708,-1.4779,-0.24967
11,-0.446915,16.8576,-0.11527,0.28143,-1.5029,-0.22622
11,-0.459142,16.9066,-0.11042,0.31751,-1.5255,-0.20665
11,-0.472429,16.9565,-0.10721,0.35566,-1.5461,-0.19485
11,-0.485816,17.008,-0.10605,0.39308,-1.5656,-0.192
11,-0.499182,17.0608,-0.10737,0.42672,-1.5848,-0.19877
11,-0.512989,17.1138,-0.1096,0.45521,-1.6047,-0.20914
11,-0.527597,17.1676,-0.11092,0.47716,-1.6256,-0.21793
11,-0.542538,17.2218,-0.11001,0.49122,-1.6474,-0.22073
11,-0.55707,17.273,-0.10598,0.49936,-1.6695,-0.21428
11,-0.570197,17.3186,-0.099396,0.50716,-1.6909,-0.19977
11,-0.581386,17.3611,-0.090559,0.51983,-1.7109,-0.17685
11,-0.591827,17.405,-0.079925,0.53834,-1.7286,-0.14614
11,-0.602359,17.453,-0.068647,0.56024,-1.7432,-0.11143
11,-0.61281,17.5032,-0.058079,0.58364,-1.7543,-0.076541
11,-0.623575,17.5535,-0.047429,0.60848,-1.762,-0.03984
11,-0.633138,17.604,-0.034709,0.63634,-1.766,0.0033538
11,-0.639734,17.6546,-0.017697,0.66704,-1.7656,0.059995
11,-0.642163,17.7055,0.003398,0.6993,-1.7596,0.13179
11,-0.640197,17.7598,0.026193,0.7342,-1.7465,0.21006
11,-0.635333,17.8225,0.048282,0.77263,-1.7254,0.28304
11,-0.628032,17.8972,0.068352,0.81239,-1.6971,0.34926
11,-0.618992,17.9833,0.087977,0.85094,-1.6622,0.41766
11,-0.609722,18.077,0.1085,0.88751,-1.6205,0.49194
11,-0.601975,18.1753,0.13107,0.92389,-1.5713,0.57476
11,-0.594039,18.2777,0.15661,0.96016,-1.5138,0.66655
11,-0.582407,18.3865,0.18271,0.9928,-1.4471,0.75665
11,-0.562991,18.5017,0.20695,1.0191,-1.3715,0.8377
11,-0.535742,18.6204,0.22792,1.0378,-1.2877,0.90552
11,-0.504683,18.7414,0.24572,1.0469,-1.1971,0.96025
11,-0.473633,18.8639,0.26248,1.0431,-1.1011,1.009
11,-0.444681,18.9859,0.27857,1.0242,-1.0002,1.0532
11,-0.415874,19.1069,0.29363,0.9911,-0.89489,1.0898
11,-0.385356,19.228,0.30853,0.94744,-0.78591,1.1193
11,-0.350672,19.351,0.32444,0.89662,-0.67398,1.1463
11,-0.310357,19.4738,0.33874,0.83989,-0.55936,1.1649
11,-0.267714,19.5896,0.34853,0.77618,-0.44287,1.1652
11,-0.225842,19.6929,0.35129,0.7057,-0.32635,1.14
11,-0.186332,19.7811,0.3477,0.63038,-0.21235,1.0922
11,-0.148764,19.8535,0.34132,0.55123,-0.10313,1.035
11,-0.110381,19.9086,0.33511,0.46943,0.00036859,0.98052
11,-0.0709006,19.9455,0.3297,0.38699,0.098421,0.92952
11,-0.0317381,19.9655,0.32184,0.30409,0.19137,0.87046
12,-0.00304907,15.2883,0.10367,0.44727,0.050743,0.22784
12,-0.00305523,15.2975,0.10034,0.45219,0.073527,0.21594
12,0.00108661,15.3191,0.096294,0.44958,0.095121,0.20263
12,0.0104107,15.3541,0.092305,0.44087,0.11538,0.19035
12,0.0247721,15.4026,0.088459,0.42787,0.13442,0.17971
12,0.0419612,15.4617,0.084955,0.41248,0.15239,0.17081
12,0.0593636,15.5255,0.08188,0.39635,0.16947,0.16047
12,0.0745292,15.5886,0.079152,0.3806,0.18552,0.14555
12,0.0864577,15.6464,0.07673,0.36568,0.20007,0.12481
12,0.0951661,15.696,0.074649,0.35149,0.21255,0.097958
12,0.100617,15.7356,0.072895,0.33697,0.22235,0.24069
12,0.107324,15.7857,0.074384,0.33208,0.24642,0.2085
12,0.112504,15.8278,0.072535,0.31619,0.26727,0.16217
12,0.116947,15.8615,0.066181,0.2875,0.28349,0.10148
12,0.120794,15.8874,0.055061,0.24512,0.29363,0.027708
12,0.124384,15.9071,0.040627,0.19118,0.2964,-0.052791
12,0.12796,15.9225,0.025154,0.13074,0.29113,-0.13276
12,0.13151,15.9353,0.011002,0.069078,0.27785,-0.20496
12,0.135066,15.9466,-0.00084458,0.010732,0.25735,-0.26598
12,0.138784,15.9562,-0.010407,-0.04071,0.23076,-0.31568
12,0.142741,15.9623,-0.017376,-0.082208,0.19919,-0.35431
12,0.145713,15.9616,-0.023325,-0.12179,0.16376,-0.38839
12,0.146157,15.9514,-0.027279,-0.14893,0.12492,-0.41393
12,0.142773,15.9291,-0.030378,-0.16349,0.083526,-0.43708
12,0.134894,15.8929,-0.032778,-0.16699,0.039818,-0.45903
12,0.123216,15.844,-0.034836,-0.16159,-0.0060856,-0.48008
12,0.109672,15.787,-0.036815,-0.14904,-0.054093,-0.49588
12,0.0965331,15.7267,-0.038879,-0.13085,-0.10368,-0.50083
12,0.0847685,15.6679,-0.041232,-0.10829,-0.15376,-0.49123
12,0.0743516,15.6146,-0.043936,-0.082546,-0.20289,-0.46395
12,0.0658656,15.5712,-0.046975,-0.053738,-0.24928,-0.42108
12,0.0606748,15.5422,-0.049693,-0.0206,-0.29139,-0.36404
12,0.0579469,15.53,-0.051297,0.018259,-0.32779,-0.29805
12,0.0561904,15.5345,-0.05111,0.06406,-0.3576,-0.22876
12,0.0552374,15.5534,-0.048784,0.11749,-0.38048,-0.16025
12,0.0547122,15.5839,-0.044537,0.17737,-0.3965,-0.096514
12,0.0543304,15.6244,-0.039443,0.24075,-0.40615,-0.039168
12,0.0537513,15.6737,-0.034743,0.30455,-0.41007,0.01068
12,0.052601,15.73,-0.030775,0.36625,-0.409,0.051556
12,0.0509123,15.7911,-0.027269,0.42353,-0.40385,0.085001
12,0.0487914,15.8548,-0.024533,0.47343,-0.39534,0.11211
12,0.0463261,15.9204,-0.02381,0.51278,-0.38413,0.12748
12,0.0435627,15.988,-0.024646,0.53977,-0.37139,0.13508
12,0.0405527,16.0572,-0.02597,0.55468,-0.35788,0.14334
12,0.0373256,16.1279,-0.027703,0.5594,-0.34354,0.15325
12,0.0341426,16.1988,-0.02965,0.55586,-0.32822,0.16283
12,0.0307854,16.2684,-0.031663,0.54476,-0.31193,0.16613
12,0.0270473,16.3358,-0.033426,0.52631,-0.29532,0.15771
12,0.0232179,16.4004,-0.034536,0.50096,-0.27955,0.13788
12,0.0198129,16.4616,-0.035316,0.47084,-0.26576,0.10827
12,0.0167987,16.5181,-0.036021,0.43961,-0.25493,0.073414
12,0.0130547,16.5677,-0.036452,0.40969,-0.24759,0.036488
12,0.00865443,16.6095,-0.036592,0.38272,-0.24394,7.16E-05
12,0.00425079,16.6438,-0.036872,0.35972,-0.24394,-0.033584
12,-0.000168764,16.6722,-0.037282,0.34007,-0.2473,-0.062105
12,-0.00458833,16.6956,-0.037581,0.32241,-0.25351,-0.083103
12,-0.00899474,16.7139,-0.037829,0.30531,-0.26182,-0.099179
12,-0.0131007,16.7263,-0.03802,0.28775,-0.27173,-0.11301
12,-0.0164711,16.7319,-0.038014,0.26942,-0.28304,-0.12133
12,-0.01972,16.7328,-0.037772,0.25126,-0.29517,-0.12282
12,-0.0232502,16.734,-0.037303,0.23534,-0.30745,-0.12037
12,-0.0265785,16.7398,-0.036104,0.22395,-0.31949,-0.11256
12,-0.0296216,16.7534,-0.034251,0.21861,-0.33074,-0.10184
12,-0.0331919,16.7767,-0.032033,0.21989,-0.34093,-0.092137
12,-0.037238,16.808,-0.029514,0.22708,-0.35014,-0.083928
12,-0.0410196,16.8436,-0.026818,0.23982,-0.35853,-0.075437
12,-0.0448719,16.8791,-0.023805,0.25923,-0.36608,-0.059084
12,-0.0489933,16.9113,-0.021385,0.28639,-0.37199,-0.030361
12,-0.0528108,16.9392,-0.022126,0.32073,-0.37502,0.00069526
12,-0.055732,16.9641,-0.027603,0.35885,-0.37495,0.018811
12,-0.0578064,16.9887,-0.038347,0.39482,-0.37307,0.013289
12,-0.059154,17.0156,-0.054941,0.42481,-0.37174,-0.018385
12,-0.0598476,17.0467,-0.076809,0.44653,-0.37358,-0.07071
12,-0.059816,17.0836,-0.10215,0.45836,-0.38065,-0.13783
12,-0.0591976,17.1263,-0.13032,0.46187,-0.39443,-0.21841
12,-0.0582253,17.1752,-0.1615,0.46075,-0.41628,-0.31217
12,-0.0566049,17.2324,-0.19502,0.45973,-0.44749,-0.41519
12,-0.0558699,17.2991,-0.23004,0.46217,-0.48901,-0.52223
12,-0.060724,17.3734,-0.26581,0.46825,-0.54123,-0.63176
12,-0.0749269,17.4505,-0.30154,0.47731,-0.60441,-0.74428
12,-0.0999438,17.5237,-0.33531,0.48889,-0.67884,-0.85343
12,-0.13646,17.5894,-0.3658,0.50199,-0.76418,-0.95455
12,-0.18324,17.6465,-0.39338,0.5165,-0.85964,-1.0466
12,-0.237497,17.6934,-0.41889,0.53108,-0.9643,-1.1291
12,-0.297887,17.7317,-0.44266,0.54409,-1.0772,-1.203
12,-0.364022,17.7651,-0.46488,0.55452,-1.1975,-1.2691
12,-0.434909,17.7985,-0.48618,0.55962,-1.3244,-1.3327
12,-0.50907,17.8356,-0.50522,0.55762,-1.4577,-1.3952
12,-0.584439,17.8757,-0.51738,0.55016,-1.5972,-1.4428
12,-0.658806,17.9187,-0.51878,0.54114,-1.7415,-1.4559
12,-0.728436,17.9665,-0.50795,0.53526,-1.8871,-1.4246
12,-0.79075,18.0196,-0.48462,0.53421,-2.0295,-1.3495
12,-0.846605,18.0797,-0.45046,0.53746,-2.1645,-1.2392
12,-0.89759,18.1458,-0.40812,0.54487,-2.2884,-1.101
12,-0.94452,18.2145,-0.35902,0.55527,-2.3985,-0.93767
12,-0.987977,18.2843,-0.304,0.56717,-2.4923,-0.75589
12,-1.02897,18.3516,-0.24403,0.57782,-2.5679,-0.56157
12,-1.06632,18.4143,-0.18049,0.5855,-2.624,-0.35986
12,-1.09549,18.4737,-0.11515,0.59244,-2.66,-0.15707
12,-1.11249,18.5327,-0.049884,0.59973,-2.6757,0.042846
12,-1.11583,18.5942,0.011926,0.60608,-2.6714,0.23196
12,-1.10569,18.6579,0.068134,0.61119,-2.6482,0.40651
12,-1.08417,18.7214,0.11987,0.61387,-2.6076,0.56707
12,-1.05374,18.7831,0.16938,0.61516,-2.5509,0.71304
12,-1.01593,18.8423,0.21759,0.61587,-2.4796,0.8462
12,-0.972017,18.8994,0.26364,0.61452,-2.395,0.96553
12,-0.922974,18.9542,0.30703,0.61102,-2.2984,1.0702
12,-0.870056,19.0066,0.34592,0.60557,-2.1914,1.1584
12,-0.814736,19.0606,0.3766,0.59845,-2.0755,1.2213
12,-0.758573,19.1182,0.39761,0.58957,-1.9534,1.2527
12,-0.704583,19.1787,0.40977,0.57934,-1.8281,1.2545
12,-0.654482,19.242,0.41416,0.56975,-1.7027,1.2316
12,-0.606863,19.3075,0.41266,0.56352,-1.5795,1.1908
12,-0.558821,19.3761,0.40576,0.56255,-1.4605,1.1326
12,-0.509337,19.4463,0.39317,0.5674,-1.3472,1.0567
12,-0.460688,19.5133,0.37684,0.57763,-1.2415,0.97535
12,-0.414914,19.5737,0.35964,0.59246,-1.144,9.00E-01
12,-0.374467,19.6255,0.34283,0.6096,-1.054,0.83163
12,-0.342296,19.6706,0.32581,0.6243,-0.9708,0.76362
12,-0.317261,19.7119,0.3074,0.6337,-0.89444,0.68853
12,-0.296287,19.7529,0.28755,0.63824,-0.82558,0.60238
12,-0.27737,19.7974,0.26672,0.63818,-0.76534,0.50328
12,-0.258851,19.8484,0.24431,0.63249,-0.71502,0.39311
12,-0.242227,19.9082,0.21826,0.61942,-0.6757,0.27462
12,-0.229594,19.9771,0.18811,0.60173,-0.64824,0.14887
12,-0.218327,20.0547,0.15659,0.58447,-0.63336,0.024363
12,-0.203689,20.1391,0.12614,0.5717,-0.63092,-0.089081
13,0.164866,13.0397,0.18516,0.49667,-0.21025,1.2609
13,0.185904,13.0938,0.15077,0.52783,-0.084153,1.0231
13,0.203611,13.1484,0.11319,0.55304,0.018161,0.77319
13,0.218114,13.204,0.073728,0.57335,0.095481,0.52544
13,0.227928,13.2598,0.033775,0.59061,0.14802,0.29383
13,0.232269,13.3165,-0.0057931,0.60559,0.17741,0.086483
13,0.23074,13.3762,-0.044278,0.61714,0.18606,-0.087008
13,0.22221,13.44,-0.079919,0.62357,0.17736,-0.21561
13,0.206598,13.5091,-0.11119,0.62614,0.15579,-0.29664
13,0.184996,13.5826,-0.13767,0.62683,0.12613,-0.33217
13,0.158399,13.6575,-0.15997,0.62794,0.092913,-0.32464
13,0.127893,13.7328,-0.17972,0.63221,0.060449,-0.2806
13,0.0941544,13.8087,-0.19824,0.64002,0.032388,-0.20931
13,0.0578852,13.8849,-0.21471,0.65004,0.011457,-0.1161
13,0.0206681,13.9591,-0.22717,0.66201,-0.00015321,-0.0096026
13,-0.0161356,14.028,-0.23525,0.67406,-0.0011135,0.09612
13,-0.0522156,14.089,-0.23896,0.68242,0.0084985,0.19944
13,-0.0851697,14.1417,-0.23704,0.6848,0.028442,0.3113
13,-0.112958,14.1907,-0.22915,0.67906,0.059572,0.43572
13,-0.135815,14.2407,-0.21632,0.66559,0.10314,0.57085
13,-0.155066,14.2955,-0.19936,0.6474,0.16023,0.71675
13,-0.173533,14.3582,-0.17911,0.62535,0.2319,0.86459
13,-0.192876,14.4284,-0.15615,0.59877,0.31836,0.99837
13,-0.211314,14.504,-0.13116,0.56817,0.4182,1.1032
13,-0.226408,14.5838,-0.10524,0.53745,0.52852,1.164
13,-0.238225,14.6646,-0.079367,0.51196,0.64492,1.1678
13,-0.247171,14.7411,-0.053924,0.49552,0.7617,1.1109
13,-0.251873,14.8096,-0.031461,0.48756,0.87279,0.98907
13,-0.25171,14.8673,-0.014135,0.48259,0.9717,0.80119
13,-0.247639,14.9138,-0.0016183,0.4754,1.0518,0.55547
13,-0.240323,14.9523,0.0073942,0.46257,1.1074,0.26395
13,-0.230335,14.9835,0.015745,0.44134,1.1338,-0.051019
13,-0.218137,15.0062,0.024884,0.41174,1.1287,-0.37092
13,-0.204426,15.0213,0.033557,0.37596,1.0916,-0.68874
13,-0.189807,15.034,0.0401,0.33616,1.0227,-0.99586
13,-0.174869,15.0519,0.043881,0.29518,0.92311,-1.2777
13,-0.160064,15.08,0.043922,0.25629,0.79534,-1.5292
13,-0.148092,15.1169,0.038079,0.22141,0.64242,-1.7612
13,-0.141229,15.1559,0.026283,0.192,0.4663,-1.9807
13,-0.139052,15.1915,0.010655,0.16824,0.26822,-2.1861
13,-0.140278,15.2207,-0.0080132,0.14846,0.049617,-2.3731
13,-0.142043,15.2409,-0.030005,0.13223,-0.18769,-2.5351
13,-0.143108,15.2519,-0.054936,0.12075,-0.44119,-2.6674
13,-0.1442,15.256,-0.081294,0.11363,-0.70793,-2.7678
13,-0.146208,15.2561,-0.10817,0.10679,-0.98471,-2.8338
13,-0.150463,15.255,-0.13515,0.09462,-1.2681,-2.857
13,-0.159326,15.2537,-0.16201,0.073933,-1.5538,-2.8333
13,-0.175714,15.2524,-0.18737,0.046593,-1.8371,-2.7614
13,-0.199143,15.2513,-0.21001,0.017407,-2.1133,-2.6398
13,-0.22633,15.2503,-0.23026,-0.010166,-2.3772,-2.4743
13,-0.256349,15.2492,-0.24873,-0.034635,-2.6247,-2.2733
13,-0.290344,15.2479,-0.26647,-0.055635,-2.852,-2.0488
13,-0.32801,15.2477,-0.28387,-0.074317,-3.0569,-1.8106
13,-0.367014,15.2485,-0.30077,-0.093108,-3.2379,-1.5666
13,-0.406151,15.2476,-0.31574,-0.11414,-3.3946,-1.3209
13,-0.445175,15.2412,-0.32595,-0.13803,-3.5267,-1.0741
13,-0.484092,15.2279,-0.32862,-0.16402,-3.6341,-0.82887
13,-0.522842,15.21,-0.32174,-0.1909,-3.717,-0.58379
13,-0.561243,15.1907,-0.30709,-0.21804,-3.7754,-0.33999
13,-0.599565,15.1712,-0.28866,-0.24545,-3.8094,-0.10626
13,-0.637743,15.1514,-0.26747,-0.27275,-3.82,0.10572
13,-0.674987,15.1296,-0.24205,-0.29974,-3.8094,0.29191
13,-0.710839,15.1033,-0.21244,-0.32689,-3.7802,0.45781
13,-0.745736,15.0697,-0.1804,-0.35398,-3.7344,0.61077
13,-0.777686,15.0279,-0.14639,-0.37941,-3.6734,0.75777
13,-0.802366,14.9789,-0.11051,-0.40119,-3.5976,0.89503
13,-0.816558,14.9256,-0.073379,-0.41888,-3.5081,1.0159
13,-0.819204,14.8707,-0.036112,-0.43423,-3.4065,1.1181
13,-0.813324,14.8152,0.00083243,-0.44924,-3.2947,1.2015
13,-0.803656,14.7594,0.038318,-0.46479,-3.1745,1.2723
13,-0.791289,14.7037,0.076509,-0.48047,-3.0473,1.3344
13,-0.77445,14.6485,0.11432,-0.49457,-2.9139,1.3864
13,-0.752899,14.5939,0.15119,-0.50454,-2.7752,1.4286
13,-0.727805,14.5405,0.18731,-0.50772,-2.6324,1.4639
13,-0.698938,14.4888,0.22083,-0.50299,-2.486,1.4873
13,-0.666185,14.4388,0.24876,-0.49147,-2.3372,1.4904
13,-0.630851,14.3901,0.26954,-0.47566,-2.1882,1.4731
13,-0.595066,14.3416,0.2834,-0.45804,-2.0409,1.4407
13,-0.559578,14.2922,0.29288,-0.43987,-1.8968,1.4014
13,-0.522928,14.2416,0.30099,-0.42145,-1.7567,1.3639
13,-0.484725,14.1905,0.30826,-0.4032,-1.6203,1.3343
13,-0.446355,14.1404,0.3134,-0.38583,-1.4869,1.3116
13,-0.408453,14.0942,0.31614,-0.36961,-1.3557,1.292
13,-0.371122,14.0543,0.31664,-0.35434,-1.2265,1.2705
13,-0.336028,14.0219,0.31357,-0.33959,-1.0995,1.238
13,-0.30485,13.996,0.3063,-0.32494,-0.97566,1.1931
13,-0.277478,13.9743,0.29618,-0.30991,-0.85635,1.1427
13,-0.252412,13.9546,0.28544,-0.29375,-0.74208,1.0948
13,-0.227556,13.9354,0.27485,-0.27579,-0.63259,1.0517
13,-0.201675,13.9165,0.26299,-0.25595,-0.52743,1.0066
13,-0.174777,13.8973,0.24943,-0.23482,-0.42677,0.9565
13,-0.147642,13.8768,0.23519,-0.2135,-0.33112,0.90407
13,-0.120626,13.8547,0.22067,-0.1934,-0.24071,0.85108
13,-0.094526,13.8319,0.20613,-0.17588,-0.1556,0.7991
13,-0.0717888,13.8096,0.19236,-0.16168,-0.07569,0.75015
13,-0.0535845,13.7889,0.17882,-0.15071,-0.00067581,0.70192
13,-0.0384982,13.7703,0.16711,-0.14181,0.069516,0.6598
14,0.132281,15.8873,-0.011078,-0.10047,0.29343,-0.23008
14,0.136151,15.8939,-0.019879,-0.15148,0.27042,-0.25245
14,0.140248,15.8969,-0.025333,-0.19086,0.24518,-0.26475
14,0.143321,15.8926,-0.028559,-0.21943,0.2187,-0.2724
14,0.143836,15.8781,-0.030331,-0.23934,0.19146,-0.27767
14,0.140551,15.8506,-0.030998,-0.25256,0.1637,-0.28136
14,0.132726,15.8082,-0.030851,-0.26002,0.13556,-0.2839
14,0.121133,15.7524,-0.03334,-0.27646,0.10717,-0.28318
14,0.107791,15.689,-0.035557,-0.28835,0.078852,-0.27906
14,0.094661,15.6236,-0.037688,-0.29669,0.050945,-0.27172
14,0.0830618,15.5601,-0.039852,-0.30253,0.023773,-0.26292
14,0.0739926,15.502,-0.04228,-0.30634,-0.0025194,-0.25552
14,0.0674244,15.4518,-0.045079,-0.30758,-0.028071,-0.25088
14,0.062662,15.4099,-0.047585,-0.3052,-0.053159,-0.24631
14,0.0591828,15.3753,-0.048994,-0.29785,-0.07779,-0.23861
14,0.0567785,15.3469,-0.048659,-0.28404,-0.10165,-0.22494
14,0.0552369,15.3243,-0.04617,-0.26276,-0.12414,-0.20372
14,0.0543038,15.3071,-0.0419,-0.23485,-0.14452,-0.175
14,0.0536898,15.2946,-0.036848,-0.20313,-0.16202,-0.14057
14,0.0531819,15.2864,-0.031971,-0.17036,-0.17607,-0.10597
14,0.0525774,15.2822,-0.027916,-0.1386,-0.18667,-0.073723
14,0.0515904,15.2812,-0.025174,-0.10956,-0.19404,-0.044268
14,0.0500894,15.2818,-0.023728,-0.084422,-0.19847,-0.018627
14,0.0481501,15.2822,-0.023216,-0.06345,-0.20033,0.0050582
14,0.0458482,15.2824,-0.023365,-0.046146,-0.19983,0.028556
14,0.0432332,15.2825,-0.024074,-0.031943,-0.19697,0.052113
14,0.0403854,15.2826,-0.025233,-0.020648,-0.19176,0.075731
14,0.037332,15.2827,-0.026712,-0.011922,-0.18419,0.097764
14,0.0340952,15.2828,-0.02837,-0.0055454,-0.17441,0.11542
14,0.0307199,15.2828,-0.030077,-0.0020408,-0.16287,0.1265
14,0.0272301,15.2829,-0.03166,-0.0017409,-0.15022,0.13097
14,0.0236454,15.2829,-0.032838,-0.0040594,-0.13712,0.13113
14,0.0199692,15.283,-0.033477,-0.0072739,-0.12401,0.1288
14,0.0162304,15.283,-0.033565,-0.0099726,-0.11113,0.12474
14,0.012453,15.283,-0.033499,-0.012547,-0.098655,0.118
14,0.00863045,15.283,-0.033873,-0.01529,-0.086856,0.1062
14,0.00477059,15.2831,-0.034965,-0.016939,-0.076236,0.090435
14,0.000879855,15.2833,-0.037099,-0.015896,-0.067192,0.073881
14,-0.00304958,15.2835,-0.040701,-0.011018,-0.059804,0.054346
14,-0.00697155,15.2823,-0.04574,-0.0022047,-0.05437,0.028762
14,-0.0107426,15.2787,-0.051955,0.0097257,-0.051493,-0.0053405
14,-0.014086,15.2731,-0.058947,0.023774,-0.052027,-0.047479
14,-0.016865,15.2672,-0.06602,0.038726,-0.056775,-0.090833
14,-0.0189798,15.2623,-0.072688,0.053346,-0.065859,-0.1339
14,-0.0211505,15.2573,-0.078533,0.066671,-0.079249,-0.1778
14,-0.0245125,15.2519,-0.083013,0.078064,-0.097029,-0.22023
14,-0.0295444,15.2487,-0.085982,0.087139,-0.11905,-0.26046
14,-0.0368661,15.2509,-0.088261,0.093752,-0.1451,-0.30039
14,-0.047306,15.2607,-0.091409,0.09848,-0.17514,-0.34363
14,-0.0607599,15.2784,-0.09664,0.10306,-0.2095,-0.39257
14,-0.0766808,15.3023,-0.10422,0.10946,-0.24876,-0.44722
14,-0.0942479,15.3305,-0.11441,0.11866,-0.29348,-0.50891
14,-0.112071,15.3604,-0.12726,0.1298,-0.34437,-0.57844
14,-0.129145,15.3897,-0.14252,0.14264,-0.40221,-0.65509
14,-0.144613,15.4164,-0.15915,0.1595,-0.46772,-0.73495
14,-0.157396,15.4392,-0.17601,0.18146,-0.54122,-0.81323
14,-0.167194,15.4573,-0.19298,0.2052,-0.62254,-0.89125
14,-0.175642,15.4708,-0.20945,0.22514,-0.71167,-0.97028
14,-0.185868,15.4804,-0.22405,0.2373,-0.8087,-1.0457
14,-0.200252,15.4884,-0.23621,0.24203,-0.91326,-1.113
14,-0.219179,15.4976,-0.24595,0.24203,-1.0246,-1.1692
14,-0.242905,15.5104,-0.25384,0.23954,-1.1415,-1.2141
14,-0.271391,15.5268,-0.26131,0.23678,-1.2629,-1.2537
14,-0.304012,15.5476,-0.26943,0.23591,-1.3883,-1.2889
14,-0.339448,15.5763,-0.27907,0.2386,-1.5171,-1.319
14,-0.376529,15.6149,-0.29134,0.24618,-1.649,-1.3495
14,-0.41551,15.6591,-0.30656,0.25892,-1.784,-1.3822
14,-0.455774,15.7012,-0.32314,0.27508,-1.9222,-1.4125
14,-0.4954,15.7354,-0.33787,0.29287,-2.0635,-1.4308
14,-0.533184,15.7625,-0.34731,0.31201,-2.2066,-1.4279
14,-0.568574,15.7864,-0.35021,0.33178,-2.3493,-1.4017
14,-0.601932,15.8096,-0.34663,0.35185,-2.4895,-1.3535
14,-0.6347,15.834,-0.33693,0.37284,-2.6249,-1.284
14,-0.668007,15.8615,-0.32208,0.39309,-2.7533,-1.1968
14,-0.702761,15.8936,-0.30328,0.40873,-2.8729,-1.097
14,-0.740081,15.9315,-0.28131,0.41732,-2.9826,-0.98994
14,-0.780312,15.9752,-0.25598,0.42118,-3.0816,-0.87674
14,-0.821913,16.0209,-0.22765,0.4264,-3.1693,-0.75903
14,-0.861605,16.0662,-0.19719,0.43758,-3.2452,-0.63877
14,-0.894863,16.1124,-0.1649,0.45443,-3.3091,-0.51339
14,-0.9196,16.1612,-0.13104,0.47522,-3.3604,-0.38002
14,-0.936167,16.2141,-0.095918,0.49906,-3.3984,-0.24059
14,-0.945253,16.2725,-0.059759,0.52463,-3.4225,-0.098156
14,-0.948177,16.3338,-0.022823,0.55055,-3.4323,0.041007
14,-0.946002,16.3938,0.015478,0.57622,-3.4282,0.17452
14,-0.939148,16.4495,0.055962,0.60128,-3.4108,0.30731
14,-0.927463,16.5015,0.09849,0.62617,-3.38,0.43943
14,-0.911071,16.554,0.14213,0.65377,-3.3361,0.56877
14,-0.889784,16.6105,0.1851,0.68569,-3.2792,0.69282
14,-0.862987,16.6714,0.224,0.71903,-3.2099,0.80446
14,-0.830644,16.7368,0.2568,0.75083,-3.1295,0.89947
14,-0.793767,16.8077,0.28395,0.77912,-3.0395,0.97825
14,-0.754217,16.8832,0.30687,0.80403,-2.9417,1.0446
14,-0.713654,16.9626,0.32759,0.82921,-2.8372,1.1058
14,-0.671805,17.046,0.34758,0.85884,-2.7267,1.1657
14,-0.628156,17.1341,0.36798,0.89461,-2.6101,1.2309
14,-0.583333,17.2275,0.38967,0.93409,-2.487,1.3101
14,-0.537644,17.3285,0.41206,0.97296,-2.356,1.4016
14,-0.491397,17.4375,0.43283,1.0082,-2.2158,1.4935
14,-0.44686,17.5505,0.44883,1.0385,-2.0665,1.569
14,-0.406002,17.6629,0.45741,1.0623,-1.9096,1.6116
14,-0.368265,17.7724,0.45852,1.0787,-1.7484,1.6159
14,-0.331506,17.8806,0.4552,1.089,-1.5868,1.5935
14,-0.293001,17.9922,0.44976,1.0946,-1.4275,1.5604
14,-0.250842,18.1114,0.44079,1.0955,-1.2714,1.5202
14,-0.203197,18.2387,0.42697,1.0906,-1.1194,1.4718
14,-0.148133,18.3697,0.40995,1.0801,-0.97223,1.4241
14,-0.0869563,18.4999,0.39233,1.0634,-0.82983,1.3843
14,-0.0241326,18.6268,0.37622,1.039,-0.6914,1.3499
14,0.0346708,18.7484,0.36301,1.0078,-0.55641,1.317
14,0.0841726,18.8615,0.35316,0.97243,-0.42471,1.2855
14,0.123281,18.9651,0.34676,0.93553,-0.29616,1.2591
14,0.156175,19.0612,0.3427,0.89679,-0.17025,1.2357
14,0.185861,19.1519,0.33772,0.85297,-0.046681,1.2046
14,0.209774,19.237,0.3279,0.79974,0.073776,1.1563
14,0.22578,19.3153,0.30966,0.73689,0.1894,1.0808
15,-0.106741,18.4841,-0.048534,0.34433,0.18193,-0.049875
15,-0.107798,18.5205,-0.049653,0.35097,0.17694,-0.057682
15,-0.109936,18.5598,-0.048668,0.3616,0.17117,-0.061636
15,-0.113901,18.6004,-0.046016,0.37469,0.16501,-0.065038
15,-0.120158,18.6414,-0.042561,0.38903,0.15851,-0.067794
15,-0.128069,18.6816,-0.038655,0.40376,0.15173,-0.06743
15,-0.135407,18.7196,-0.034185,0.41784,0.14498,-0.062826
15,-0.141122,18.7534,-0.029437,0.43008,0.1387,-0.057811
15,-0.146091,18.7817,-0.025172,0.43907,0.13292,-0.057453
15,-0.150948,18.8058,-0.021309,0.44336,0.12717,-0.061053
15,-0.155275,18.8284,-0.017321,0.44267,0.12107,-0.07607
15,-0.161359,18.8701,-0.013025,0.44189,0.11346,-0.10077
15,-0.165142,18.918,-0.0073525,0.43734,0.10339,-0.1216
15,-0.166561,18.9712,0.00032701,0.4317,0.091225,-0.13783
15,-0.166326,19.0287,0.010584,0.42657,0.077442,-0.14884
15,-0.164724,19.0897,0.022983,0.42342,0.062558,-0.15724
15,-0.161437,19.1526,0.035678,0.4244,0.046835,-0.16215
15,-0.156783,19.2152,0.04766,0.43175,0.03062,-0.15836
15,-0.152051,19.2744,0.059194,0.44643,0.014783,-0.14449
15,-0.147228,19.3264,0.070135,0.46664,0.00033458,-0.12659
15,-0.141383,19.3694,0.079598,0.48862,-0.012324,-0.11277
15,-0.133849,19.4043,0.088126,0.50033,-0.023601,-0.10445
15,-0.124641,19.4344,0.093798,0.50774,-0.034046,-0.095358
15,-0.113247,19.4638,0.097497,0.5101,-0.043582,-0.080005
15,-0.0989902,19.4945,0.099768,0.50592,-0.051582,-0.060266
15,-0.0821024,19.5285,0.10001,0.4938,-0.057609,-0.045132
15,-0.0640514,19.5684,0.097678,0.47258,-0.062122,-0.041091
15,-0.0458015,19.6169,0.092402,0.44185,-0.066231,-0.04272
15,-0.027703,19.6746,0.084128,0.40242,-0.070503,-0.041715
15,-0.0106774,19.7391,0.072663,0.35725,-0.074675,-0.039466
15,0.00392075,19.8056,0.057947,0.30973,-0.078621,-0.042332
15,0.0148918,19.8708,0.039962,0.26073,-0.082854,-0.055561
15,0.0224542,19.9335,0.019167,0.2084,-0.08841,-0.076975
15,0.028434,19.9914,-0.0043734,0.15029,-0.096108,-0.10385
15,0.0332098,20.0405,-0.030738,0.085025,-0.10649,-0.13777
15,0.0353048,20.0773,-0.059459,0.010419,-0.12027,-0.17974
15,0.0339186,20.0978,-0.090194,-0.076801,-0.13824,-0.23179
15,0.0280205,20.0989,-0.12303,-0.1793,-0.16142,-0.29782
15,0.0162047,20.0792,-0.15782,-0.29792,-0.1912,-0.37824
15,-0.00190153,20.0409,-0.1935,-0.431,-0.22903,-0.46787
15,-0.0254882,19.9889,-0.22842,-0.57485,-0.27582,-0.55881
15,-0.0539246,19.9257,-0.2616,-0.72583,-0.3317,-0.65267
15,-0.0863071,19.8512,-0.29349,-0.882,-0.39696,-0.75984
15,-0.121994,19.7643,-0.32578,-1.0398,-0.47295,-0.88908
15,-0.160466,19.6645,-0.35838,-1.194,-0.56186,-1.0383
15,-0.20102,19.5493,-0.38959,-1.34,-0.66569,-1.1934
15,-0.24444,19.4148,-0.41812,-1.4732,-0.78503,-1.3418
15,-0.291864,19.2583,-0.44234,-1.5902,-0.9192,-1.4851
15,-0.343337,19.0788,-0.46034,-1.6887,-1.0677,-1.6272
15,-0.397673,18.8771,-0.47158,-1.7696,-1.2304,-1.7637
15,-0.452929,18.6559,-0.47713,-1.8366,-1.4068,-1.8848
15,-0.508315,18.4191,-0.47795,-1.8925,-1.5953,-1.9767
15,-0.564532,18.1695,-0.47488,-1.9382,-1.7929,-2.0366
15,-0.623121,17.9118,-0.46856,-1.9741,-1.9966,-2.0686
15,-0.683555,17.6525,-0.45973,-2.0001,-2.2035,-2.0718
15,-0.743869,17.3972,-0.44871,-2.0145,-2.4106,-2.0459
15,-0.80232,17.1513,-0.43375,-2.0146,-2.6152,-1.994
15,-0.85665,16.9186,-0.41278,-1.9991,-2.8146,-1.9194
15,-0.904479,16.7019,-0.38466,-1.9672,-3.0066,-1.8188
15,-0.94506,16.5018,-0.35103,-1.9185,-3.1885,-1.6948
15,-0.97975,16.3157,-0.31547,-1.8539,-3.3579,-1.5582
15,-1.00982,16.1408,-0.28041,-1.7759,-3.5138,-1.4163
15,-1.03606,15.9748,-0.24689,-1.6868,-3.6554,-1.2704
15,-1.05911,15.8162,-0.2144,-1.5889,-3.7824,-1.1153
15,-1.07993,15.6643,-0.18261,-1.4851,-3.8939,-0.94668
15,-1.09845,15.5203,-0.15169,-1.3777,-3.9886,-0.7677
15,-1.11195,15.3855,-0.12262,-1.2692,-4.0654,-0.58685
15,-1.11742,15.2601,-0.09708,-1.1624,-4.1241,-0.40818
15,-1.11266,15.1443,-0.076594,-1.0592,-4.1649,-0.23269
15,-1.09972,15.04,-0.061482,-0.95928,-4.1882,-0.062773
15,-1.08386,14.9481,-0.050132,-0.85984,-4.1944,0.097078
15,-1.06914,14.8672,-0.0409,-0.75831,-4.1847,0.23195
15,-1.05831,14.796,-0.032605,-0.65262,-4.1615,0.33317
15,-1.05192,14.7341,-0.024393,-0.54106,-4.1282,0.40077
15,-1.04878,14.6823,-0.015863,-0.42388,-4.0881,0.43394
15,-1.04726,14.6419,-0.0083384,-0.3042,-4.0447,0.43333
15,-1.04755,14.6128,-0.0051871,-0.1849,-4.0014,0.40463
15,-1.05081,14.5938,-0.0094506,-0.067093,-3.9609,0.35479
15,-1.05767,14.5834,-0.022356,0.048514,-3.9255,0.27982
15,-1.06802,14.5832,-0.040705,0.16062,-3.8975,0.18571
15,-1.08001,14.596,-0.059432,0.26838,-3.8789,0.088501
15,-1.09162,14.6241,-0.074924,0.37184,-3.8701,0.0030775
15,-1.10127,14.6696,-0.085042,0.47067,-3.8698,-0.059278
15,-1.1079,14.7341,-0.089609,0.56382,-3.8757,-0.099757
15,-1.11166,14.8165,-0.089221,0.64968,-3.8857,-0.1246
15,-1.11512,14.9119,-0.084484,0.72668,-3.8981,-0.13842
15,-1.12232,15.0157,-0.07459,0.79406,-3.912,-0.13864
15,-1.13632,15.1259,-0.058304,0.85252,-3.9258,-0.12035
15,-1.15737,15.2413,-0.035624,0.9031,-3.9379,-0.084127
15,-1.18113,15.3613,-0.0073721,0.94434,-3.9463,-0.033819
15,-1.20273,15.4849,0.024371,0.97292,-3.9497,0.026145
15,-1.21898,15.6109,0.056949,0.98541,-3.947,0.094863
15,-1.22839,15.7373,0.088447,0.97893,-3.9376,0.17105
15,-1.23114,15.8617,0.11788,0.95126,-3.9205,0.25329
15,-1.22722,15.9817,0.14536,0.90315,-3.8951,0.34312
15,-1.21622,16.0952,0.17284,0.83991,-3.8608,0.443
15,-1.19673,16.2009,0.20289,0.76758,-3.8165,0.55336
15,-1.16742,16.2988,0.23785,0.6911,-3.7612,0.67467
15,-1.12891,16.3896,0.27783,0.61402,-3.6937,0.80787
15,-1.08277,16.4719,0.31929,0.53795,-3.6129,0.94279
15,-1.03127,16.5418,0.35937,0.46266,-3.5186,1.0693
15,-0.977718,16.595,0.3966,0.38701,-3.4117,1.1817
15,-0.924374,16.6275,0.43008,0.31043,-3.2935,1.2751
15,-0.872136,16.6366,0.45964,0.2334,-3.166,1.3498
15,-0.820932,16.6228,0.4848,0.15685,-3.031,1.4059
15,-0.76945,16.5917,0.50431,0.081641,-2.8905,1.4406
15,-0.716543,16.5509,0.51633,0.0084558,-2.7464,1.4498
15,-0.660625,16.5081,0.51962,-0.062407,-2.6014,1.4321
15,-0.601718,16.4694,0.51475,-0.13105,-2.4582,1.3919
15,-0.542548,16.4372,0.5031,-0.19652,-2.319,1.3353
15,-0.48399,16.4102,0.4862,-0.25639,-2.1855,1.2661
15,-0.425794,16.3849,0.4665,-0.30733,-2.0589,1.1912
15,-0.368239,16.3582,0.44556,-0.34648,-1.9398,1.1165
15,-0.311846,16.3285,0.42384,-0.37205,-1.8281,1.0434
15,-0.257613,16.2954,0.40152,-0.38407,-1.7238,0.97165
15,-0.207601,16.2585,0.37825,-0.38547,-1.6266,0.89966
15,-0.164083,16.2178,0.35389,-0.38092,-1.5366,0.82863
15,-0.128186,16.174,0.32747,-0.37587,-1.4538,0.75682
15,-0.0994242,16.1275,0.2985,-0.37516,-1.3781,0.68405
15,-0.0765649,16.0789,0.26868,-0.38092,-1.3097,0.6173
15,-0.058865,16.0291,0.23856,-0.39193,-1.248,0.55677
15,-0.0447225,15.9803,0.20798,-0.40466,-1.1923,0.50064
15,-0.0332465,15.9345,0.17763,-0.41546,-1.1422,0.45199
15,-0.0244503,15.8925,0.1482,-0.42257,-1.097,0.41244
15,-0.0178843,15.8547,0.12008,-0.42591,-1.0558,0.38152
15,-0.0129525,15.8208,0.094098,-0.42604,-1.0176,0.3606
15,-0.00875412,15.7891,0.071428,-0.42334,-0.98156,0.3513
15,-0.00568893,15.7563,0.052615,-0.41799,-0.94643,0.35123
15,-0.00471946,15.719,0.037485,-0.41045,-0.9113,0.35524
15,-0.00519414,15.6753,0.025542,-0.40084,-0.87578,0.3604
15,-0.00686353,15.6263,0.016361,-0.38229,-0.83974,0.35909
15,-0.009824,15.5756,0.0090057,-0.36363,-0.80383,0.35908
15,-0.0129839,15.5273,0.0030246,-0.34595,-0.76792,0.35978
15,-0.0154531,15.4834,-0.0015903,-0.32981,-0.73194,0.36199
15,-0.0174432,15.4436,-0.0050602,-0.31549,-0.69574,0.36542
15,-0.0194055,15.4064,-0.0076875,-0.30296,-0.6592,0.37025
15,-0.0212262,15.3711,-0.0099264,-0.29151,-0.62218,0.37437
15,-0.0229562,15.338,-0.01158,-0.27964,-0.58474,0.37725
15,-0.0244532,15.3066,-0.012171,-0.26572,-0.54701,0.37935
15,-0.0254811,15.2772,-0.011934,-0.24387,-0.50908,0.36585
15,-0.0261436,15.2645,-0.011683,-0.23092,-0.47249,0.22671
15,-0.026711,15.253,-0.010688,-0.21556,-0.44982,0.23246
15,-0.0271973,15.2426,-0.0094575,-0.1998,-0.42658,0.23405
15,-0.0276309,15.2329,-0.0085053,-0.18484,-0.40317,0.22909
15,-0.0280046,15.2237,-0.0077456,-0.17064,-0.38026,0.21853
15,-0.0283274,15.2149,-0.0068972,-0.15629,-0.35841,0.20338
15,-0.0286069,15.206,-0.0060272,-0.14119,-0.33807,0.18324
15,-0.0288498,15.1971,-0.0050878,-0.12534,-0.31975,0.15971
15,-0.0290616,15.1876,-0.0041894,-0.10821,-0.30378,0.13597
15,-0.0290616,15.1876,-0.0041894,-0.10821,-0.29018,0.13597
16,-0.172175,16.8135,0.17731,0.53069,-0.28307,0.25953
16,-0.148226,16.8771,0.19162,0.56888,-0.25712,0.31733
16,-0.125743,16.9439,0.20391,0.60552,-0.22539,0.3685
16,-0.102049,17.0139,0.21572,0.63863,-0.18854,0.40999
16,-0.0755383,17.0865,0.22712,0.66432,-0.14754,0.44764
16,-0.0467754,17.1608,0.23513,0.67872,-0.10278,0.47595
16,-0.0185978,17.2364,0.23796,0.68044,-0.05518,0.48692
16,0.00737146,17.3144,0.23455,0.66914,-0.0064883,0.47887
16,0.03283,17.3959,0.2257,0.64565,0.041398,0.457
16,0.0599192,17.4806,0.21353,0.6123,0.087098,0.42901
16,0.0884234,17.5666,0.19966,0.57131,0.13,0.39977
16,0.116084,17.6514,0.18531,0.52422,0.16998,0.37252
16,0.140718,17.7333,0.16997,0.47209,0.20723,0.34448
16,0.163189,17.8099,0.152,0.41595,0.24168,0.30952
16,0.183977,17.8769,0.13035,0.35695,0.27263,0.2645
16,0.201569,17.9298,0.10519,0.29632,0.29908,0.21109
16,0.215215,17.9664,0.078213,0.23474,0.32019,0.15572
16,0.224002,17.9859,0.050672,0.17171,0.33576,0.10213
16,0.228284,17.989,0.021999,0.10664,0.34597,0.045656
16,0.229155,17.9781,-0.0086244,0.039579,0.35054,-0.022525
16,0.227151,17.9561,-0.040948,-0.028374,0.34829,-0.10583
16,0.222386,17.9255,-0.073801,-0.095377,0.3377,-0.19818
16,0.214194,17.8881,-0.1055,-0.15951,0.31788,-0.28725
16,0.201941,17.8458,-0.13566,-0.21909,0.28916,-0.36774
16,0.185171,17.8004,-0.16422,-0.27168,0.25239,-0.44316
16,0.163598,17.7535,-0.19041,-0.3148,0.20807,-0.51318
16,0.137827,17.7059,-0.21387,-0.34742,0.15675,-0.57477
16,0.108716,17.6578,-0.23448,-0.36973,0.099276,-0.63076
16,0.0768288,17.6091,-0.2533,-0.38336,0.036201,-0.68936
16,0.0426704,17.5598,-0.27188,-0.39091,-0.032736,-0.75635
16,0.00652814,17.5099,-0.2905,-0.39456,-0.10837,-0.83045
16,-0.0315185,17.4607,-0.30793,-0.39553,-0.19142,-0.90549
16,-0.0702851,17.4143,-0.32267,-0.39458,-0.28196,-0.97283
16,-0.108134,17.3717,-0.3339,-0.39266,-0.37925,-1.0267
16,-0.144473,17.3336,-0.34098,-0.39088,-0.48192,-1.065
16,-0.179247,17.3002,-0.34354,-0.3901,-0.58842,-1.0879
16,-0.212529,17.2715,-0.34213,-0.39063,-0.69721,-1.099
16,-0.244959,17.2464,-0.33761,-0.3923,-0.80711,-1.0997
16,-0.278315,17.2222,-0.33051,-0.39481,-0.91708,-1.0909
16,-0.31461,17.1963,-0.32132,-0.39786,-1.0262,-1.0752
16,-0.353849,17.167,-0.31029,-0.40145,-1.1337,-1.0534
16,-0.393483,17.1345,-0.29764,-0.40626,-1.239,-1.026
16,-0.431142,17.0989,-0.28431,-0.41292,-1.3416,-0.996
16,-0.465849,17.0605,-0.27128,-0.42107,-1.4412,-0.96625
16,-0.496799,17.0187,-0.25859,-0.4299,-1.5379,-0.93601
16,-0.523483,16.9733,-0.24631,-0.43923,-1.6315,-0.90554
16,-0.546439,16.9246,-0.23475,-0.44927,-1.722,-0.87676
16,-0.566496,16.8732,-0.22344,-0.45955,-1.8097,-0.84668
16,-0.584195,16.8195,-0.2107,-0.46838,-1.8944,-0.80731
16,-0.599968,16.7641,-0.19453,-0.47383,-1.9751,-0.75132
16,-0.614056,16.707,-0.1747,-0.4752,-2.0502,-0.67893
16,-0.626804,16.6482,-0.15388,-0.47366,-2.1181,-0.59983
16,-0.638903,16.5884,-0.13457,-0.47135,-2.1781,-0.5253
16,-0.650688,16.5296,-0.11771,-0.47014,-2.2306,-0.46032
16,-0.661663,16.4738,-0.1036,-0.47083,-2.2767,-0.40625
16,-0.671873,16.4217,-0.092129,-0.47316,-2.3173,-0.36379
16,-0.682031,16.373,-0.082909,-0.47661,-2.3537,-0.33285
16,-0.691843,16.3273,-0.075439,-0.48086,-2.387,-0.31483
16,-0.699723,16.2855,-0.069371,-0.48584,-2.4184,-0.31017
16,-0.703662,16.2486,-0.064575,-0.49151,-2.4495,-0.31678
16,-0.703248,16.2166,-0.060923,-0.49749,-2.4811,-0.33041
16,-0.701248,16.1871,-0.057218,-0.50294,-2.5142,-0.34319
16,-0.700291,16.1562,-0.051777,-0.50721,-2.5485,-0.34716
16,-0.701263,16.1202,-0.043327,-0.5104,-2.5832,-0.33595
16,-0.704001,16.077,-0.031665,-0.5132,-2.6168,-0.30933
16,-0.707741,16.027,-0.01741,-0.51613,-2.6477,-0.27078
16,-0.712256,15.9714,-0.00085235,-0.51939,-2.6748,-0.2221
16,-0.717374,15.9115,0.017471,-0.52313,-2.697,-0.16597
16,-0.722937,15.8478,0.036421,-0.52773,-2.7136,-0.10663
16,-0.729118,15.781,0.054499,-0.53359,-2.7243,-0.049846
16,-0.735903,15.712,0.071087,-0.53987,-2.7293,0.0021955
16,-0.74124,15.6423,0.088468,-0.54395,-2.729,0.057721
16,-0.742457,15.574,0.10878,-0.54351,-2.7233,0.12527
16,-0.737343,15.5088,0.13189,-0.53746,-2.7107,0.20372
16,-0.724992,15.4474,0.15657,-0.52592,-2.6904,0.28858
16,-0.706692,15.3895,0.18139,-0.51101,-2.6615,0.37837
16,-0.683736,15.3342,0.20612,-0.49488,-2.6237,0.47612
16,-0.6569,15.2811,0.23089,-0.47809,-2.5761,0.58725
16,-0.626881,15.23,0.25567,-0.46048,-2.5173,0.7147
16,-0.594664,15.1814,0.2807,-0.442,-2.4459,0.85591
16,-0.561075,15.1369,0.30603,-0.42318,-2.3603,1.0026
16,-0.524311,15.0992,0.32962,-0.40529,-2.26,1.1415
16,-0.482723,15.0692,0.34886,-0.39012,-2.1459,1.2597
16,-0.437473,15.0453,0.36158,-0.37912,-2.0199,1.3448
16,-0.390852,15.0252,0.36689,-0.37279,-1.8854,1.3939
16,-0.344953,15.005,0.36611,-0.37071,-1.746,1.4152
16,-0.300019,14.9816,0.36056,-0.372,-1.6045,1.4158
16,-0.255594,14.9553,0.35105,-0.37589,-1.4629,1.399
16,-0.211604,14.9269,0.33828,-0.38202,-1.323,1.3678
16,-0.16771,14.8971,0.32317,-0.39045,-1.1863,1.3275
16,-0.123842,14.8656,0.30619,-0.40229,-1.0535,1.2798
16,-0.0819977,14.8317,0.28572,-0.41948,-0.92553,1.2177
16,-0.0447353,14.7938,0.26076,-0.44164,-0.80376,1.1373
16,-0.0141856,14.7506,0.23302,-0.46586,-0.69003,1.046
16,0.00878404,14.7018,0.20476,-0.48925,-0.58543,0.9524
16,0.0255223,14.648,0.17771,-0.50811,-0.49019,0.86117
16,0.037382,14.5902,0.152,-0.52015,-0.40408,0.77119
16,0.0451925,14.5293,0.1271,-0.52614,-0.32696,0.67708
16,0.0496797,14.466,0.10299,-0.52813,-0.25925,0.57671
16,0.0516676,14.4005,0.079446,-0.52852,-0.20158,0.47257
16,0.0512984,14.3323,0.055944,-0.52856,-0.15432,0.36906
16,0.0471233,14.2603,0.032968,-0.52742,-0.11742,0.27174
16,0.0387996,14.1859,0.011539,-0.52284,-0.090242,0.18551
17,0.0326259,13.8157,0.0079595,0.16801,0.172,-0.020136
17,0.0332937,13.8206,0.0079943,0.15687,0.16998,-0.057122
17,0.0343278,13.8322,0.0080788,0.14797,0.16427,-0.080839
17,0.0352232,13.8491,0.0080305,0.14032,0.15619,-0.093814
17,0.0360065,13.8705,0.0078878,0.13305,0.14681,-0.095303
17,0.0367326,13.8954,0.0076947,0.12622,0.13728,-0.088024
17,0.0380298,13.9216,0.00748,0.12059,0.12847,-0.076808
17,0.0397206,13.9457,0.0070693,0.11658,0.12079,-0.064739
17,0.0404804,13.9646,0.0063557,0.11373,0.11432,-0.053776
17,0.0405224,13.977,0.005555,0.11073,0.10894,-0.043636
17,0.0405854,13.9837,0.0047069,0.10632,0.10458,-0.098198
17,0.0414197,13.9882,0.0033615,0.10279,0.094757,-0.083369
17,0.0423204,13.9932,0.0014614,0.094243,0.08642,-0.080032
17,0.0430656,13.9981,-0.00046604,0.082224,0.078417,-0.080778
17,0.0436688,14.002,-0.0024109,0.06803,0.070339,-0.087063
17,0.0441679,14.005,-0.0043879,0.052955,0.061633,-0.098878
17,0.0445939,14.0086,-0.0068521,0.039133,0.051745,-0.11296
17,0.0446437,14.0139,-0.0096996,0.029783,0.040449,-0.12518
17,0.0440662,14.0204,-0.011821,0.027799,0.027931,-0.13243
17,0.0431804,14.0261,-0.013343,0.034105,0.014688,-0.13705
17,0.0420397,14.0283,-0.014938,0.04784,0.00098245,-0.1417
17,0.0400167,14.0262,-0.016971,0.066407,-0.013187,-0.1248
17,0.0372507,14.0207,-0.01908,0.087756,-0.025667,-0.1099
17,0.0342912,14.0136,-0.021161,0.11174,-0.036657,-0.097483
17,0.0311848,14.0066,-0.023212,0.13843,-0.046406,-0.090911
17,0.0279568,14.0013,-0.025119,0.1669,-0.055497,-0.090329
17,0.0243256,13.9999,-0.026914,0.19485,-0.06453,-0.093523
17,0.0203213,14.0053,-0.028523,0.2201,-0.073882,-0.098491
17,0.0168376,14.0202,-0.029671,0.24237,-0.083731,-0.10263
17,0.0138371,14.0452,-0.030541,0.26381,-0.093994,-0.10672
17,0.01071,14.0794,-0.031175,0.28712,-0.10467,-0.10857
17,0.00747809,14.121,-0.03097,0.31294,-0.11552,-0.10366
17,0.00415949,14.1688,-0.030056,0.34023,-0.12589,-0.093472
17,0.000742842,14.2216,-0.028997,0.36789,-0.13524,-0.081636
17,-0.00275491,14.2788,-0.02795,0.39546,-0.1434,-0.06792
17,-0.00606968,14.3388,-0.027183,0.42245,-0.15019,-0.053097
17,-0.00923308,14.3983,-0.026838,0.4473,-0.1555,-0.039611
17,-0.0124029,14.4541,-0.026822,0.4679,-0.15946,-0.028779
17,-0.0152752,14.5051,-0.027296,0.48253,-0.16234,-0.020796
17,-0.0179015,14.5537,-0.02803,0.49044,-0.16442,-0.014408
17,-0.0203111,14.6026,-0.028598,0.49168,-0.16586,-0.0075342
17,-0.0219228,14.6521,-0.02887,0.48663,-0.16661,-0.00013107
17,-0.0228612,14.7011,-0.028648,0.47581,-0.16663,0.0069242
17,-0.0237034,14.7494,-0.027931,0.45986,-0.16593,0.0131
17,-0.0247159,14.7975,-0.026924,0.43999,-0.16462,0.018534
17,-0.0264091,14.8462,-0.025926,0.41852,-0.16277,0.02263
17,-0.0293498,14.8945,-0.024857,0.39907,-0.16051,0.025451
17,-0.0333225,14.9411,-0.023419,0.38531,-0.15796,0.028512
17,-0.037754,14.9852,-0.021802,0.37904,-0.15511,0.032473
17,-0.042223,15.0261,-0.019952,0.37901,-0.15186,0.038047
17,-0.0464861,15.0627,-0.01792,0.38337,-0.14806,0.044909
17,-0.0502628,15.0943,-0.016345,0.39255,-0.14357,0.051422
17,-0.0531371,15.1204,-0.015259,0.40722,-0.13843,0.057573
17,-0.0551201,15.1413,-0.014795,0.42578,-0.13267,0.062297
17,-0.0566027,15.1588,-0.015089,0.44427,-0.12644,0.063714
17,-0.0579213,15.1758,-0.01549,0.45943,-0.12007,0.063041
17,-0.0589463,15.1965,-0.015388,0.47133,-0.11376,0.062232
17,-0.0592415,15.2247,-0.014862,0.48129,-0.10754,0.061349
17,-0.0588802,15.2632,-0.014276,0.49044,-0.10141,0.059337
17,-0.0578048,15.3117,-0.013982,0.50026,-0.095472,0.05596
17,-0.0561518,15.3693,-0.013969,0.51222,-0.089876,0.050507
17,-0.0546131,15.4372,-0.014702,0.52715,-0.084826,0.041089
17,-0.0533798,15.5156,-0.01773,0.54492,-0.080717,0.023935
17,-0.0532939,15.6009,-0.023874,0.56491,-0.078323,-0.0035673
17,-0.0548945,15.6861,-0.032353,0.58557,-0.07868,-0.03869
17,-0.05739,15.7651,-0.041591,0.60375,-0.082549,-0.075704
17,-0.0601257,15.8371,-0.04953,0.61616,-0.090119,-0.10668
17,-0.0630469,15.9037,-0.055815,0.62078,-0.10079,-0.13039
17,-0.066306,15.9661,-0.062535,0.61721,-0.11383,-0.15569
17,-0.0701867,16.0266,-0.07191,0.60611,-0.1294,-0.18979
17,-0.0744237,16.0872,-0.085129,0.58622,-0.14838,-0.23702
17,-0.0796662,16.1486,-0.10199,0.55445,-0.17208,-0.29863
17,-0.0885967,16.2102,-0.12101,0.50983,-0.20194,-0.36987
17,-0.102868,16.2711,-0.13985,0.4555,-0.23893,-0.44172
17,-0.121308,16.3299,-0.15767,0.39777,-0.2831,-0.50845
17,-0.141104,16.3833,-0.17498,0.34188,-0.33394,-0.56958
17,-0.158007,16.4288,-0.19213,0.28861,-0.3909,-0.6258
17,-0.170872,16.4662,-0.20916,0.2369,-0.45348,-0.67854
17,-0.183949,16.4976,-0.226,0.18633,-0.52134,-0.72789
17,-0.201625,16.5239,-0.24283,0.13727,-0.59413,-0.77498
17,-0.226409,16.5417,-0.25999,0.090393,-0.67162,-0.8212
17,-0.2586,16.5461,-0.27655,0.047093,-0.75374,-0.86307
17,-0.295391,16.5352,-0.28953,0.0096276,-0.84005,-0.89289
17,-0.333001,16.5119,-0.29721,-0.021051,-0.92934,-0.90646
17,-0.370235,16.4816,-0.30095,-0.044443,-1.02,-0.90763
17,-0.407355,16.4488,-0.30353,-0.058891,-1.1107,-0.90624
17,-0.444394,16.4143,-0.30925,-0.063664,-1.2014,-0.91776
17,-0.481367,16.3775,-0.31925,-0.060282,-1.2931,-0.9475
17,-0.518297,16.3388,-0.32938,-0.051811,-1.3879,-0.98285
17,-0.555837,16.3011,-0.33521,-0.039992,-1.4862,-1.009
17,-0.594396,16.268,-0.33334,-0.022312,-1.5871,-1.0129
17,-0.632769,16.2428,-0.32222,0.004898,-1.6884,-0.98722
17,-0.667661,16.2295,-0.30346,0.042649,-1.7871,-0.93667
17,-0.697289,16.229,-0.2793,0.089345,-1.8808,-0.86909
17,-0.723208,16.241,-0.25039,0.14137,-1.9677,-0.78799
17,-0.748164,16.2656,-0.21739,0.195,-2.0465,-0.69691
17,-0.776509,16.3014,-0.18141,0.24883,-2.1162,-0.59991
17,-0.809369,16.3457,-0.14328,0.3036,-2.1762,-0.49702
17,-0.842699,16.394,-0.10335,0.35989,-2.2259,-0.38942
17,-0.872037,16.4439,-0.061142,0.41582,-2.2648,-0.27662
17,-0.893095,16.4971,-0.016735,0.46797,-2.2925,-0.15773
17,-0.90304,16.5559,0.028655,0.51296,-2.3082,-0.035909
17,-0.902304,16.6205,0.072707,0.54787,-2.3118,0.085192
17,-0.8916,16.6906,0.11441,0.57195,-2.3033,0.2033
17,-0.871018,16.7644,0.15485,0.58543,-2.283,0.32011
17,-0.842132,16.8388,0.19487,0.58795,-2.251,0.43977
17,-0.807205,16.912,0.23576,0.5795,-2.207,0.56692
17,-0.767927,16.9847,0.27728,0.56071,-2.1503,0.70098
17,-0.724996,17.0586,0.31697,0.53371,-2.0802,0.83469
17,-0.678121,17.1328,0.35244,0.50058,-1.9967,0.95652
17,-0.627866,17.2039,0.38124,0.46077,-1.9011,1.0531
17,-0.575459,17.2687,0.4016,0.41306,-1.7958,1.1141
17,-0.522246,17.3252,0.41332,0.35765,-1.6844,1.1345
17,-0.468472,17.3729,0.41619,0.29609,-1.5709,1.1165
17,-0.413509,17.4119,0.41006,0.23141,-1.4593,1.0674
17,-0.358418,17.4415,0.39657,0.16735,-1.3525,0.99888
17,-0.304986,17.4604,0.37792,0.10638,-1.2526,0.92235
17,-0.254807,17.4671,3.56E-01,0.048095,-1.1604,0.83614
17,-0.208754,17.4614,0.33003,-0.0098396,-1.0768,0.73375
17,-0.167156,17.4451,0.30133,-0.068204,-1.0034,0.61313
17,-0.130623,17.4186,0.26983,-0.12502,-0.9421,0.48031
17,-0.0998344,17.382,0.23642,-0.17777,-0.89407,0.34407
17,-0.0756671,17.3358,0.20203,-0.22487,-0.85966,0.21077
17,-0.0592278,17.2828,0.16669,-0.26593,-0.83859,0.085386
17,-0.0508928,17.2272,0.13017,-0.30113,-0.83005,-0.032578
18,-0.087269,13.6823,5.40E-05,0.015977,0.21761,-0.045732
18,-0.0872268,13.6844,-0.00053058,0.019683,0.21304,-0.045547
18,-0.0871707,13.6863,-0.0016937,0.023709,0.20848,-0.050554
18,-0.0871273,13.688,-0.0036801,0.027923,0.20343,-0.0604
18,-0.0870934,13.6896,-0.0065005,0.032024,0.19739,-0.074192
18,-0.087049,13.691,-0.0097727,0.035965,0.18997,-0.089874
18,-0.0870148,13.6923,-0.012974,0.039835,0.18098,-0.10391
18,-0.0869884,13.6935,-0.015844,0.043526,0.17059,-0.11432
18,-0.0869532,13.6948,-0.018527,0.046677,0.15916,-0.12278
18,-0.0869679,13.6963,-0.021328,0.048891,0.14688,-0.13046
18,-0.087215,13.6982,-0.023558,0.049807,0.13383,-0.20786
18,-0.0878526,13.7039,-0.025457,0.050172,0.11305,-0.21234
18,-0.0893014,13.7107,-0.02619,0.04747,0.091815,-0.21224
18,-0.0920531,13.7186,-0.026427,0.040415,0.070591,-0.21178
18,-0.0963696,13.7271,-0.026786,0.028204,0.049413,-0.21154
18,-0.101928,13.7362,-0.027664,0.011513,0.028259,-0.21287
18,-0.108027,13.746,-0.028487,-0.0074754,0.0069712,-0.21348
18,-0.114204,13.7563,-0.028608,-0.02662,-0.014377,-0.21122
18,-0.120617,13.7663,-0.027794,-0.044259,-0.035499,-0.2056
18,-0.127792,13.7752,-0.026288,-0.059477,-0.056059,-0.19698
18,-0.134385,13.7819,-0.024287,-0.072659,-0.075757,-0.18619
18,-0.138142,13.7847,-0.021645,-0.086182,-0.094376,-0.17312
18,-0.139552,13.7812,-0.018032,-0.099462,-0.11169,-0.1538
18,-0.139981,13.7689,-0.012969,-0.11268,-0.12707,-0.12565
18,-0.140665,13.746,-0.006221,-0.12559,-0.13963,-0.08831
18,-0.142376,13.714,0.0018688,-0.13831,-0.14846,-0.043368
18,-0.143989,13.6773,0.010575,-0.15149,-0.1528,0.0061764
18,-0.144205,13.6403,0.019521,-0.16531,-0.15218,0.058529
18,-0.14254,13.6063,0.029015,-0.17908,-0.14633,0.11524
18,-0.139545,13.5773,0.039587,-0.19156,-0.13481,0.17666
18,-0.13579,13.5529,0.049853,-0.20138,-0.11714,0.23546
18,-0.131143,13.5315,0.057418,-0.20647,-0.093594,0.28337
18,-0.125365,13.5118,0.062735,-0.20379,-0.065258,0.32384
18,-0.117991,13.4932,0.067266,-0.18996,-0.032874,0.36329
18,-0.108812,13.4759,0.072244,-0.16263,0.0034553,0.40504
18,-0.0981903,13.4596,0.078416,-0.12247,0.043959,0.45106
18,-0.0868766,13.443,0.084739,-0.073448,0.089065,0.49688
18,-0.075161,13.4256,0.089885,-0.019894,0.13875,0.53782
18,-0.0625866,13.4081,0.093299,0.034466,0.19254,0.57399
18,-0.0486173,13.392,0.095538,0.086866,0.24993,0.60237
18,-0.0346786,13.3791,0.096706,0.1364,0.31017,0.61479
18,-0.0233054,13.3718,0.095868,0.18311,0.37165,0.60284
18,-0.014081,13.3737,0.092287,0.2272,0.43193,0.56606
18,-0.00544954,13.3889,0.085612,0.26868,0.48854,0.51189
18,0.00382321,13.4208,0.076142,0.30785,0.53973,0.44942
18,0.0144557,13.4691,0.064826,0.34584,0.58467,0.38077
18,0.0254892,13.5304,0.052958,0.38462,0.62275,0.3055
18,0.0355646,13.6005,0.041435,0.42549,0.6533,0.22604
18,0.0440576,13.6752,0.03023,0.46823,0.6759,0.14305
18,0.0515311,13.7511,0.018869,0.51172,0.69021,0.05744
18,0.0576216,13.8257,0.0078902,0.55435,0.69595,-0.026676
18,0.0605937,13.8978,-0.0012053,0.59392,0.69328,-0.10547
18,0.0592092,13.9662,-0.0089205,0.62714,0.68274,-0.18279
18,0.0532334,14.0306,-0.017396,0.6503,0.66446,-0.26659
18,0.0434725,14.0916,-0.028014,0.66095,0.6378,-0.36117
18,0.0314622,14.1513,-0.041016,0.65869,0.60168,-0.46649
18,0.0190389,14.2123,-0.055675,0.64465,0.55503,-0.57916
18,0.00770841,14.2766,-0.070895,0.62017,0.49712,-0.69388
18,-0.00212562,14.3446,-0.086092,0.58688,0.42773,-0.8113
18,-0.0108796,14.4155,-0.10092,0.54714,0.3466,-0.92317
18,-0.0188982,14.4878,-0.11447,0.50372,0.25428,-1.0104
18,-0.0257159,14.5596,-0.12547,0.45916,0.15324,-1.0571
18,-0.031922,14.6279,-0.13234,0.41488,0.04753,-1.0608
18,-0.0402413,14.6895,-0.13465,0.37059,-0.058547,-1.0376
18,-0.0522041,14.7427,-0.13336,0.32456,-0.16231,-1.0046
18,-0.067576,14.7865,-0.13059,0.27476,-0.26277,-0.96689
18,-0.0858601,14.8197,-0.12893,0.21959,-0.35946,-0.92847
18,-0.106225,14.8409,-0.12996,0.15855,-0.4523,-0.89775
18,-0.128126,14.849,-0.13403,0.092129,-0.54208,-0.87791
18,-0.150311,14.8453,-0.14046,0.021166,-0.62987,-0.86861
18,-0.171309,14.8332,-0.14869,-0.053117,-0.71673,-0.86794
18,-0.190339,14.8161,-0.15891,-0.12882,-0.80352,-0.87467
18,-0.205477,14.796,-0.17046,-0.20337,-0.89099,-0.88513
18,-0.216065,14.7718,-0.18057,-0.27425,-0.9795,-0.88872
18,-0.223245,14.7407,-0.18729,-0.34019,-1.0684,-0.87796
18,-0.229724,14.7008,-0.19013,-0.40068,-1.1562,-0.85112
18,-0.238822,14.6514,-0.18908,-0.4547,-1.2413,-0.80809
