veh_id,target_vel_x,target_vel_y,target_acc_x,target_acc_y,ref_heading,yaw_rate
1,0.0413432,9.54907,-0.029048,0.015499,-0.26142,0.81943
1,0.0446394,9.56532,-0.03789,0.071215,-0.17948,0.67786
1,0.0478138,9.58971,-0.0471,0.12715,-0.11169,0.52834
1,0.0494528,9.62436,-0.056839,0.17963,-0.058859,0.37609
1,0.0481236,9.66803,-0.066994,0.22439,-0.021249,0.22647
1,0.0424568,9.71598,-0.077311,0.2575,0.001398,0.083949
1,0.0313985,9.76283,-0.087806,0.27661,0.0097929,-0.049411
1,0.0159458,9.80562,-0.098542,0.28282,0.0048519,-0.17499
1,-0.00182621,9.84482,-0.10947,0.27957,-0.012647,-0.29466
1,-0.0198453,9.88309,-0.12056,0.27084,-0.042113,-0.40825
1,-0.0372922,9.92269,-0.13177,0.25953,-0.082938,-0.51495
1,-0.0546211,9.96368,-0.14318,0.24626,-0.13443,-0.61569
1,-0.0721289,10.004,-0.15446,0.22933,-0.196,-0.71009
1,-0.0901005,10.0401,-0.16435,0.20633,-0.26701,-0.79241
1,-0.108416,10.0692,-0.17154,0.17668,-0.34625,-0.85605
1,-0.126885,10.0892,-0.17445,0.14268,-0.43186,-0.8928
1,-0.145586,10.0986,-0.17225,0.10787,-0.52114,-0.89874
1,-0.164518,10.0984,-0.16668,0.074735,-0.61101,-0.88451
1,-0.183616,10.091,-0.16047,0.043584,-0.69946,-0.86572
1,-0.20285,10.0798,-0.15569,0.013424,-0.78603,-0.85409
1,-0.222197,10.0681,-0.15222,-0.016199,-0.87144,-0.84855
1,-0.24173,10.0578,-0.14871,-0.044476,-0.9563,-0.84108
1,-0.261113,10.0484,-0.14475,-0.06989,-1.0404,-0.82987
1,-0.279254,10.037,-0.14029,-0.090729,-1.1234,-0.81462
1,-0.29496,10.0214,-0.13543,-0.10601,-1.2049,-0.79529
1,-0.306452,10.0013,-0.13027,-0.11513,-1.2844,-0.77147
1,-0.313103,9.97858,-0.12477,-0.11791,-1.3615,-0.7421
1,-0.31742,9.95509,-0.11926,-0.11535,-1.4357,-0.70924
1,-0.322769,9.93199,-0.11441,-0.10915,-1.5067,-0.67749
1,-0.331221,9.90994,-0.11079,-0.10104,-1.5744,-0.65114
1,-0.341741,9.89029,-0.10867,-0.092402,-1.6395,-0.63293
1,-0.352037,9.87473,-0.10788,-0.083878,-1.7028,-0.62278
1,-0.361633,9.86421,-0.10832,-0.07501,-1.7651,-0.62031
1,-0.37069,9.85867,-0.1103,-0.064581,-1.8271,-0.62739
1,-0.379276,9.85722,-0.11426,-0.051669,-1.8899,-0.64621
1,-0.387418,9.85893,-0.1211,-0.036275,-1.9545,-0.68141
1,-0.395128,9.86281,-0.13079,-0.018868,-2.0226,-0.73164
1,-0.403033,9.86772,-0.14121,0.00027764,-2.0958,-0.78433
1,-0.412429,9.87274,-0.14992,0.020894,-2.1742,-0.82631
1,-0.424439,9.87775,-0.1558,0.041911,-2.2569,-0.8525
1,-0.439535,9.88332,-0.16022,0.061259,-2.3421,-0.87224
1,-0.457499,9.89008,-0.16518,0.077054,-2.4293,-0.89769
1,-0.477756,9.89835,-0.17099,0.088732,-2.5191,-0.93032
1,-0.499858,9.90787,-0.17742,0.096748,-2.6121,-0.96834
1,-0.523473,9.91806,-0.18419,0.10145,-2.709,-1.01
1,-0.548642,9.92879,-0.19077,0.10239,-2.81,-1.0524
1,-0.574676,9.94084,-0.19668,0.098996,-2.9152,-1.0931
1,-0.599832,9.95565,-0.2009,0.091123,-3.0245,-1.1264
1,-0.622605,9.97378,-0.20185,0.079076,-3.1372,-1.1431
1,-0.642826,9.99376,-0.19853,0.063331,-3.2515,-1.1378
1,-0.662187,10.0128,-0.19082,0.04408,-3.3653,-1.1092
1,-0.682402,10.0288,-0.17917,0.021324,-3.4762,-1.0593
1,-0.703613,10.0417,-0.16435,-0.0050376,-3.5821,-0.99105
1,-0.725531,10.0522,-0.14692,-0.034604,-3.6812,-0.90723
1,-0.747664,10.0601,-0.12735,-0.066553,-3.7719,-0.81023
1,-0.768962,10.0637,-0.10583,-0.10026,-3.853,-0.70155
1,-0.788489,10.0608,-0.082883,-0.13569,-3.9231,-0.58436
1,-0.804841,10.05,-0.059564,-0.17334,-3.9816,-0.46414
1,-0.816131,10.0309,-0.036772,-0.2134,-4.028,-0.34491
1,-0.821496,10.0044,-0.014698,-0.25501,-4.0625,-0.22656
1,-0.82117,9.97148,0.0073991,-0.29653,-4.0851,-0.10415
1,-0.815846,9.93273,0.030471,-0.33661,-4.0955,0.02802
1,-0.806453,9.88827,0.054256,-0.3763,-4.0927,0.16752
1,-0.793707,9.83866,0.077427,-0.41839,-4.076,0.3048
1,-0.778175,9.78496,0.099663,-0.46482,-4.0455,0.43699
1,-0.760298,9.72826,0.12098,-0.516,-4.0018,0.56407
1,-0.740441,9.66946,0.14095,-0.5715,-3.9454,0.68362
1,-0.71896,9.60896,0.15929,-0.63063,-3.877,0.7945
1,-0.696148,9.54698,0.17506,-0.69313,-3.7976,0.89158
1,-0.672222,9.48375,0.18765,-0.75875,-3.7084,0.97168
1,-0.647388,9.41974,0.19727,-0.82691,-3.6113,1.0359
1,-0.621461,9.35561,0.20423,-0.89741,-3.5077,1.0844
1,-0.595102,9.28908,0.20899,-0.96963,-3.3992,1.1186
1,-0.570677,9.21539,0.21197,-1.0426,-3.2874,1.1405
1,-0.548339,9.13048,0.21352,-1.1156,-3.1733,1.1534
1,-0.527003,9.03171,0.21392,-1.1883,-3.058,1.1598
1,-0.506588,8.9178,0.21335,-1.2607,-2.942,1.1601
1,-0.486251,8.78871,0.21197,-1.3331,-2.826,1.1537
1,-0.466005,8.64464,0.20994,-1.4055,-2.7106,1.1397
1,-0.446202,8.48691,0.20736,-1.4778,-2.5966,1.1185
1,-0.426635,8.31766,0.20434,-1.5503,-2.4848,1.0917
1,-0.40738,8.1379,0.2006,-1.6234,-2.3756,1.0579
1,-0.388464,7.94902,0.19674,-1.695,-2.2698,1.0234
1,-0.369775,7.75344,0.19515,-1.7602,-2.1675,1.0101
1,-0.351142,7.55376,0.19176,-1.7895,-2.0665,0.99534
1,-0.332463,7.35173,0.18968,-1.8108,-1.9669,0.99479
1,-0.313746,7.14798,0.1884,-1.8206,-1.8675,1.005
1,-0.295012,6.94268,0.18654,-1.8168,-1.767,1.0136
1,-0.276262,6.73601,0.18358,-1.7977,-1.6656,1.0138
1,-0.2575,6.5282,0.17987,-1.7639,-1.5642,1.0069
1,-0.238714,6.31921,0.17547,-1.7174,-1.4635,0.99297
1,-0.220265,6.10875,0.17063,-1.6589,-1.3642,0.97672
1,-0.20162,5.89909,0.16557,-1.5892,-1.2666,0.96235
1,-0.180377,5.69507,0.15623,-1.4914,-1.1703,0.91737
1,-0.164817,5.55146,0.15465,-1.4648,-1.0786,0.48018
1,-0.147651,5.4102,0.15286,-1.434,-1.0306,0.48403
1,-0.129795,5.27657,0.15084,-1.3985,-0.98218,0.48803
1,-0.113163,5.15503,0.14856,-1.3576,-0.93337,0.49309
1,-0.0988368,5.04917,0.14596,-1.3103,-0.88406,0.50033
1,-0.0864554,4.95919,0.14299,-1.2554,-0.83403,0.51046
1,-0.0757046,4.88295,0.13954,-1.1913,-0.78298,0.52312
1,-0.066111,4.82002,0.13579,-1.1151,-0.73067,0.54054
1,-0.0573149,4.77058,0.13119,-1.0259,-0.67662,0.55806
1,-0.0573149,4.77058,0.13119,-1.0259,-0.62081,0.55806
2,-0.0406624,5.43391,-0.0081937,0.3985,-0.25425,0.55244
2,-0.0389299,5.44215,0.0003553,0.43899,-0.19901,0.54148
2,-0.0362068,5.44546,0.0087636,0.48777,-0.14486,0.52078
2,-0.0326774,5.44596,0.017319,0.54333,-0.092781,0.50564
2,-0.0282572,5.44878,0.025633,0.60377,-0.042218,0.49715
2,-0.0231526,5.4603,0.032321,0.66764,0.0074973,0.48102
2,-0.0176004,5.4875,0.035859,0.73464,0.055599,0.44386
2,-0.0118095,5.53613,0.035727,0.80636,0.099985,0.38361
2,-0.0058869,5.60929,0.032945,0.8849,0.13835,0.31096
2,0.000342035,5.70747,0.029071,0.97145,0.16944,0.23929
2,0.00682441,5.82769,0.02474,1.0663,0.19337,0.17171
2,0.0135296,5.96561,0.019835,1.1686,0.21054,0.10635
2,0.020406,6.11847,0.014474,1.2775,0.22118,0.044133
2,0.0278846,6.28349,0.0087232,1.3904,0.22559,-0.014667
2,0.035085,6.45619,0.0024321,1.502,0.22412,-0.071249
2,0.0395938,6.63174,-0.0041214,1.6065,0.217,-0.12647
2,0.0393226,6.80792,-0.010543,1.698,0.20435,-0.18238
2,0.0339915,6.98658,-0.016534,1.7721,0.18611,-0.23706
2,0.0256589,7.17082,-0.022101,1.8254,0.16241,-0.28436
2,0.0169756,7.36345,-0.027603,1.8566,0.13397,-0.31922
2,0.00881818,7.56643,-0.033055,1.8675,0.10205,-0.33784
2,0.000740419,7.7793,-0.03848,1.8621,0.068266,-0.34512
2,-0.00725828,8.0005,-0.043877,1.8428,0.033755,-0.34913
2,-0.015231,8.22684,-0.049532,1.8123,-0.0011585,-0.3575
2,-0.023393,8.45286,-0.05533,1.775,-0.036908,-0.36985
2,-0.0313955,8.6732,-0.0606,1.736,-0.073893,-0.37765
2,-0.038687,8.88356,-0.064814,1.698,-0.11166,-0.37474
2,-0.0448769,9.08028,-0.068992,1.6595,-0.14913,-0.36724
2,-0.0500899,9.26014,-0.07614,1.6174,-0.18586,-0.37499
2,-0.0548631,9.42068,-0.088575,1.5687,-0.22335,-0.41374
2,-0.0592856,9.56275,-0.10604,1.5107,-0.26473,-0.48102
2,-0.0634313,9.68973,-0.12725,1.4432,-0.31283,-0.56892
2,-0.0673478,9.80402,-0.15145,1.368,-0.36972,-0.67593
2,-0.0711802,9.90803,-0.178,1.2879,-0.43732,-0.80057
2,-0.0755746,10.0062,-0.20511,1.2067,-0.51737,-0.9312
2,-0.0816055,10.1038,-0.23078,1.1272,-0.61049,-1.0549
2,-0.0903063,10.204,-0.25411,1.05,-0.71598,-1.1674
2,-0.103993,10.3055,-0.27477,0.97546,-0.83272,-1.2677
2,-0.126622,10.4056,-0.2934,0.90407,-0.9595,-1.3594
2,-0.160175,10.5009,-0.31152,0.837,-1.0954,-1.4497
2,-0.203254,10.5878,-0.33004,0.77469,-1.2404,-1.5432
2,-0.253764,10.6657,-0.34875,0.7164,-1.3947,-1.6401
2,-0.31016,10.7364,-0.36761,0.66195,-1.5587,-1.743
2,-0.371226,10.8026,-0.38671,0.61088,-1.733,-1.8546
2,-0.433604,10.8663,-0.40498,0.56073,-1.9185,-1.9698
2,-0.492959,10.9276,-0.42031,0.50719,-2.1155,-2.0773
2,-0.546906,10.9836,-0.43082,0.44645,-2.3232,-2.1672
2,-0.594417,11.0312,-0.43422,0.37723,-2.5399,-2.2274
2,-0.636881,11.0683,-0.42767,0.30023,-2.7627,-2.2426
2,-0.677906,11.0947,-0.41041,0.21812,-2.9869,-2.2081
2,-0.719361,11.1121,-0.3842,0.13461,-3.2077,-2.1335
2,-0.760933,11.1225,-0.35086,0.051569,-3.4211,-2.0264
2,-0.802578,11.1279,-0.31189,-0.030973,-3.6237,-1.8893
2,-0.84461,11.1298,-0.26847,-0.11375,-3.8127,-1.7243
2,-0.885542,11.1276,-0.22399,-0.19841,-3.9851,-1.551
2,-0.922233,11.1182,-0.1829,-0.28607,-4.1402,-1.3962
2,-0.951955,11.0969,-0.14752,-0.37553,-4.2798,-1.2725
2,-0.972437,11.06,-0.11868,-0.46486,-4.4071,-1.1843
2,-0.981958,11.0061,-0.094912,-0.55243,-4.5255,-1.1235
2,-0.980989,10.9372,-0.072549,-0.63686,-4.6378,-1.0704
2,-0.971646,10.857,-0.049739,-0.71798,-4.7449,-1.0151
2,-0.95548,10.7688,-0.026788,-0.79652,-4.8464,-0.95583
2,-0.933946,10.6745,-0.0037406,-0.87383,-4.942,-0.88739
2,-0.908168,10.5751,0.019432,-0.95081,-5.0307,-0.80557
2,-0.881578,10.4695,0.042722,-1.0262,-5.1113,-0.71083
2,-0.858765,10.3555,0.065806,-1.0956,-5.1824,-0.60618
2,-0.841946,10.2326,0.087956,-1.1537,-5.243,-0.49588
2,-0.831783,10.1015,0.10846,-1.1976,-5.2926,-0.38332
2,-0.826705,9.96342,0.12602,-1.2268,-5.3309,-0.27454
2,-0.823005,9.82098,0.13988,-1.2426,-5.3583,-0.17411
2,-0.818838,9.67617,0.15079,-1.247,-5.3758,-0.078039
2,-0.814509,9.52951,0.15948,-1.2413,-5.3836,0.01485
2,-0.810059,9.38026,0.16647,-1.227,-5.3821,0.099978
2,-0.805746,9.22818,0.17224,-1.2049,-5.3721,0.17995
2,-0.800098,9.07531,0.17789,-1.1752,-5.3541,0.26937
2,-0.790622,8.92709,0.18486,-1.1384,-5.3271,0.38292
2,-0.776044,8.78941,0.19404,-1.0955,-5.2888,0.53093
2,-0.75552,8.66471,0.206,-1.0478,-5.2358,0.71442
2,-0.729921,8.55254,0.22045,-0.99708,-5.1643,0.92108
2,-0.701228,8.4519,0.23597,-0.94542,-5.0722,1.1325
2,-0.670068,8.363,0.25172,-0.8939,-4.959,1.3371
2,-0.636524,8.28615,0.26768,-0.84248,-4.8252,1.5341
2,-0.601009,8.22042,0.28381,-0.79041,-4.6718,1.725
2,-0.563692,8.16528,0.30036,-0.73741,-4.4993,1.9145
2,-0.525805,8.11903,0.31579,-0.68486,-4.3079,2.0988
2,-0.489053,8.07862,0.32749,-0.63676,-4.098,2.2633
2,-0.453871,8.04158,0.3339,-0.59739,-3.8717,2.4
2,-0.419777,8.00584,0.33396,-0.56782,-3.6317,2.5032
2,-0.385808,7.96925,0.32852,-0.54697,-3.3813,2.5758
2,-0.351059,7.93013,0.31965,-0.53417,-3.1238,2.6315
2,-0.31539,7.88837,0.30804,-0.53031,-2.8606,2.6745
2,-0.279142,7.84455,0.29304,-0.51064,-2.5932,2.6803
2,-0.24243,7.79944,0.27592,-0.50232,-2.3251,2.6832
2,-0.205031,7.75336,0.25671,-0.50684,-2.0568,2.6738
2,-0.16851,7.70559,0.23671,-0.52353,-1.7894,2.6366
2,-0.13564,7.65356,0.21802,-0.54836,-1.5258,2.5684
2,-0.108236,7.59463,0.20131,-0.57724,-1.2689,2.4558
2,-0.0875927,7.52907,0.18608,-0.60615,-1.0234,2.2959
2,-0.072871,7.45859,0.17135,-0.63071,-0.79376,2.1083
2,-0.0619293,7.38356,0.15601,-0.64814,-0.58293,1.9163
2,-0.0539832,7.30239,0.13818,-0.62726,-0.3913,1.7534
2,-0.0504446,7.26487,0.12637,-0.63721,-0.21596,1.1593
2,-0.0491676,7.21578,0.113,-0.64755,-0.10002,1.1165
2,-0.0502672,7.15159,0.097647,-0.65853,0.011627,1.0618
2,-0.0523927,7.07198,0.080925,-0.66984,0.1178,0.99377
3,-0.0224327,8.01478,0.064002,-0.32817,-0.25336,0.94891
3,-0.0132669,7.98343,0.065523,-0.29091,-0.15846,0.90803
3,-0.00449965,7.96197,0.064004,-0.25704,-0.067661,0.8313
3,0.00399042,7.9483,0.060116,-0.22704,0.01547,0.72545
3,0.0122512,7.94077,0.054293,-0.20015,0.088014,0.59982
3,0.0203356,7.93834,0.046869,-0.17531,0.148,0.46539
3,0.0283923,7.94026,0.038175,-0.15178,0.19454,0.33188
3,0.0364,7.94599,0.028468,-0.13006,0.22772,0.2041
3,0.0435904,7.95469,0.017819,-0.11257,0.24813,0.080253
3,0.0488282,7.96531,0.00612,-0.10327,0.25616,-0.043406
3,0.0511738,7.97537,-0.0067301,-0.10564,0.25182,-0.1691
3,0.0503239,7.9813,-0.020645,-0.12057,0.23491,-0.29744
3,0.0468173,7.98096,-0.03542,-0.14653,0.20516,-0.42721
3,0.0412314,7.9743,-0.0509,-0.18124,0.16244,-0.55958
3,0.0339648,7.96266,-0.066971,-0.22287,0.10649,-0.70421
3,0.0253341,7.94762,-0.083544,-0.27039,0.036064,-0.87042
3,0.0156935,7.93029,-0.10064,-0.32291,-0.050978,-1.0624
3,0.00525674,7.91035,-0.11814,-0.37923,-0.15722,-1.2683
3,-0.00633869,7.88527,-0.13519,-0.43725,-0.28405,-1.4635
3,-0.0198403,7.85086,-0.15059,-0.49468,-0.4304,-1.6296
3,-0.0358929,7.8035,-0.16333,-0.54887,-0.59336,-1.758
3,-0.054556,7.74229,-0.1731,-0.5972,-0.76916,-1.8509
3,-0.0753392,7.6689,-0.18054,-0.63878,-0.95425,-1.9142
3,-0.0978104,7.58583,-0.18629,-0.67423,-1.1457,-1.9548
3,-0.121691,7.49502,-0.19066,-0.70487,-1.3412,-1.9805
3,-0.146752,7.39756,-0.19381,-0.73207,-1.5392,-1.9993
3,-0.172893,7.29445,-0.1959,-0.7568,-1.7391,-2.0186
3,-0.199875,7.18754,-0.19712,-0.7789,-1.941,-2.0416
3,-0.226791,7.0802,-0.19723,-0.7965,-2.1451,-2.0644
3,-0.252361,6.97594,-0.19573,-0.80645,-2.3516,-2.078
3,-0.275489,6.87762,-0.19216,-0.80605,-2.5594,-2.0811
3,-0.295885,6.78689,-0.18649,-0.79473,-2.7675,-2.0804
3,-0.314272,6.7034,-0.17912,-0.77381,-2.9755,-2.0852
3,-0.331339,6.62585,-0.17038,-0.74521,-3.1841,-2.0944
3,-0.347353,6.55291,-0.16049,-0.71051,-3.3935,-2.0804
3,-0.362286,6.48348,-0.14966,-0.67074,-3.6015,-2.0128
3,-0.376114,6.4167,-0.13785,-0.62684,-3.8028,-1.8667
3,-0.388975,6.35255,-0.12591,-0.57987,-3.9895,-1.6609
3,-0.400799,6.29227,-0.11556,-0.53048,-4.1556,-1.4481
3,-0.411304,6.23797,-0.10832,-0.47889,-4.3004,-1.2731
3,-0.420219,6.19139,-0.10555,-0.42539,-4.4277,-1.1574
3,-0.427541,6.15283,-0.1081,-0.36983,-4.5434,-1.0993
3,-0.433572,6.12129,-0.11545,-0.31215,-4.6534,-1.0911
3,-0.438561,6.0954,-0.12635,-0.25272,-4.7625,-1.1192
3,-0.442676,6.07399,-0.14017,-0.19185,-4.8744,-1.1757
3,-0.446066,6.05607,-0.15663,-0.12986,-4.992,-1.2563
3,-0.448595,6.04078,-0.17538,-0.06702,-5.1176,-1.3563
3,-0.4517,6.0278,-0.19641,-0.0034679,-5.2532,-1.4742
3,-0.457902,6.01924,-0.22026,0.060887,-5.4006,-1.6131
3,-0.469008,6.01817,-0.24606,0.12607,-5.562,-1.7671
3,-0.486579,6.02685,-0.27173,0.19218,-5.7387,-1.9079
3,-0.512093,6.04724,-0.29542,0.25967,-5.9295,-2.0013
3,-0.545177,6.0791,-0.31536,0.32934,-6.1296,-2.0193
3,-0.584037,6.1204,-0.33021,0.40233,-6.3315,-1.9592
3,-0.627688,6.1692,-0.34022,0.47977,-6.5275,-1.8584
3,-0.675539,6.22376,-0.34631,0.56278,-6.7133,-1.755
3,-0.726866,6.28265,-0.34982,0.652,-6.8888,-1.6837
3,-0.781792,6.34561,-0.35084,0.74642,-7.0572,-1.6345
3,-0.841326,6.41405,-0.34803,0.8423,-7.2206,-1.5643
3,-0.903424,6.49011,-0.3408,0.93533,-7.377,-1.4434
3,-0.963679,6.57574,-0.32869,1.0226,-7.5214,-1.2615
3,-1.01838,6.67217,-0.3108,1.102,-7.6475,-1.0238
3,-1.0643,6.77997,-0.28803,1.1741,-7.7499,-0.74105
3,-1.09899,6.90006,-0.26151,1.2413,-7.824,-0.42503
3,-1.12312,7.03352,-0.23027,1.3059,-7.8665,-0.07254
3,-1.13869,7.18164,-0.19355,1.3702,-7.8738,0.31917
3,-1.14823,7.34478,-0.15096,1.4356,-7.8419,0.74912
3,-1.15338,7.52063,-0.10134,1.5021,-7.7669,1.2212
3,-1.15397,7.70385,-0.043679,1.5677,-7.6448,1.7376
3,-1.15061,7.88882,0.019198,1.6296,-7.4711,2.2756
3,-1.14397,8.07201,0.08233,1.6851,-7.2435,2.7928
3,-1.13369,8.25125,0.14147,1.7322,-6.9642,3.2472
3,-1.12124,8.42723,0.19305,1.7699,-6.6395,3.6042
3,-1.10705,8.60291,0.23451,1.797,-6.2791,3.8495
3,-1.08822,8.78108,0.26636,1.8127,-5.8941,4.0035
3,-1.06264,8.96412,0.29046,1.8157,-5.4938,4.0906
3,-1.02879,9.15377,0.30909,1.8056,-5.0847,4.1335
3,-0.984473,9.3498,0.32443,1.7842,-4.6714,4.1403
3,-0.928685,9.54952,0.33718,1.7552,-4.2573,4.106
3,-0.865028,9.74931,0.34843,1.7216,-3.8467,4.0352
3,-0.79902,9.94586,0.35938,1.6846,-3.4432,3.9375
3,-0.735451,10.1365,0.37056,1.6445,-3.0495,3.822
3,-0.678189,10.3197,0.38353,1.6001,-2.6673,3.7006
3,-0.629962,10.4941,0.39799,1.5494,-2.2972,3.5739
3,-0.590395,10.6589,0.4107,1.491,-1.9398,3.4257
3,-0.55778,10.813,0.41921,1.4246,-1.5973,3.2449
3,-0.530049,10.9559,0.42146,1.3503,-1.2728,3.0235
3,-0.504514,11.0891,0.41522,1.2677,-0.97043,2.7527
3,-0.479613,11.2143,0.39998,1.1776,-0.69516,2.4337
3,-0.453761,11.332,0.37832,1.0817,-0.45179,2.0835
3,-0.425202,11.4412,0.35351,0.982,-0.24344,1.7209
3,-0.392572,11.5403,0.32669,0.89134,-0.071357,1.386
3,-0.354181,11.6275,0.30217,0.80284,0.067247,1.0763
3,-0.311075,11.7016,0.28135,0.71705,0.17487,0.8072
3,-0.266834,11.763,0.26406,0.63398,0.25559,0.58247
4,0.19082,8.6431,-0.080673,-0.11768,-0.28797,0.39157
4,0.1827,8.63,-0.083147,-0.12357,-0.24881,0.35798
4,0.1749,8.6173,-0.08575,-0.1301,-0.21301,0.31642
4,0.16747,8.6049,-0.088111,-0.13631,-0.18137,0.27267
4,0.16045,8.5931,-0.089741,-0.14118,-0.1541,0.23208
4,0.15383,8.582,-0.090345,-0.14407,-0.1309,0.19771
4,0.1476,8.5714,-0.089996,-0.14499,-0.11112,0.48472
4,0.13999,8.5662,-0.089743,-0.1472,-0.062652,0.42779
4,0.13104,8.556,-0.088508,-0.1469,-0.019874,0.38319
4,0.12098,8.5417,-0.086662,-0.14506,0.018445,0.34743
4,0.11002,8.5241,-0.084434,-0.14225,0.053189,0.31638
4,0.09824,8.5035,-0.081986,-0.13881,0.084827,0.28978
4,0.08576,8.4807,-0.079426,-0.13496,0.1138,0.26637
4,0.073171,8.4571,-0.076829,-0.13102,0.14044,0.24
4,0.061427,8.4347,-0.074246,-0.1269,0.16444,0.20659
4,0.051304,8.4151,-0.071721,-0.12182,0.1851,0.16838
4,0.042969,8.3989,-0.069234,-0.11597,0.20194,0.13241
4,0.036152,8.3857,-0.066252,-0.11368,0.21518,0.028219
4,0.030513,8.3749,-0.063232,-0.11199,0.218,-0.052077
4,0.025835,8.366,-0.06072,-0.11327,0.21279,-0.1174
4,0.021952,8.3586,-0.059742,-0.11929,0.20105,-0.17855
4,0.018726,8.3524,-0.060544,-0.12988,0.1832,-0.24036
4,0.016044,8.3473,-0.062025,-0.14308,0.15916,-0.29755
4,0.013813,8.3429,-0.0634,-0.15732,0.12941,-0.3465
4,0.011953,8.3394,-0.064282,-0.17265,0.094757,-0.38588
4,0.010389,8.3383,-0.064774,-0.18973,0.05617,-0.41712
4,0.009134,8.3395,-0.065346,-0.2089,0.014458,-0.44437
4,0.0074905,8.3389,-0.06601,-0.23042,-0.029979,-0.46901
4,0.0045778,8.332,-0.066704,-0.25473,-0.07688,-0.49159
4,-0.00046424,8.3152,-0.06741,-0.28212,-0.12604,-0.51252
4,-0.0094657,8.2855,-0.068125,-0.3119,-0.17729,-0.53169
4,-0.022848,8.2437,-0.068684,-0.34275,-0.23046,-0.5485
4,-0.038289,8.1945,-0.069489,-0.37401,-0.28531,-0.56585
4,-0.05363,8.1425,-0.071464,-0.40613,-0.3419,-0.58805
4,-0.067136,8.0894,-0.075283,-0.44092,-0.4007,-0.6185
4,-0.078244,8.0357,-0.080535,-0.48083,-0.46255,-0.65543
4,-0.087723,7.9811,-0.086203,-0.52569,-0.52809,-0.69479
4,-0.095867,7.9249,-0.090714,-0.57172,-0.59757,-0.72851
4,-0.10289,7.8654,-0.093083,-0.61475,-0.67042,-0.74899
4,-0.10898,7.8017,-0.092266,-0.65037,-0.74532,-0.74589
4,-0.1143,7.7348,-0.085562,-0.67356,-0.81991,-0.69637
4,-0.11864,7.6669,-0.071975,-0.683,-0.88955,-0.59071
4,-0.12293,7.5993,-0.054265,-0.68308,-0.94862,-0.44974
4,-0.12912,7.5306,-0.035856,-0.68022,-0.99359,-0.30087
4,-0.13861,7.4575,-0.019653,-0.678,-1.0237,-0.16775
4,-0.15068,7.3767,-0.0069332,-0.67626,-1.0405,-0.06132
4,-0.16327,7.2881,0.0029249,-0.67292,-1.0466,0.022993
4,-0.17394,7.1954,0.010212,-0.66536,-1.0443,0.087543
4,-0.18159,7.1025,0.015851,-0.65053,-1.0355,0.13992
4,-0.185,7.0144,0.020793,-0.62667,-1.0215,0.18815
4,-0.18059,6.9384,0.025257,-0.59541,-1.0027,0.23402
4,-0.1668,6.8777,0.028903,-0.56024,-0.97932,0.27428
4,-0.14682,6.8284,0.032624,-0.52315,-0.9519,0.31576
4,-0.12534,6.782,0.038367,-0.48311,-0.92032,0.3732
4,-0.10644,6.7334,0.047613,-0.43723,-0.883,0.45618
4,-0.092111,6.6831,0.05952,-0.38276,-0.83738,0.55441
4,-0.081873,6.6352,0.071542,-0.3188,-0.78194,0.64376
4,-0.075444,6.5941,0.081113,-0.24578,-0.71756,0.70377
4,-0.071192,6.5644,0.087207,-0.16429,-0.64719,0.72744
4,-0.067398,6.5484,0.088767,-0.077457,-0.57444,0.70592
4,-0.063785,6.544,0.083286,0.0085951,-0.50385,0.61924
4,-0.060836,6.5464,0.069664,0.089214,-0.44193,0.45919
4,-0.057685,6.553,0.050102,0.16529,-0.39601,0.24456
4,-0.052381,6.5644,0.028352,0.24225,-0.37155,0.011342
4,-0.043386,6.5831,0.0077726,0.32394,-0.37042,-0.20353
4,-0.03164,6.6111,-0.0098512,0.40931,-0.39077,-0.37854
4,-0.020187,6.6505,-0.02478,0.49488,-0.42862,-0.51044
4,-0.011711,6.7039,-0.037491,0.57798,-0.47967,-0.60429
4,-0.0071747,6.7739,-0.049811,0.6559,-0.5401,-0.68194
4,-0.0074622,6.8595,-0.063543,0.72658,-0.60829,-0.76089
4,-0.014018,6.9556,-0.078759,0.79049,-0.68438,-0.84163
4,-0.02747,7.0562,-0.094816,0.84965,-0.76854,-0.92004
4,-0.046614,7.159,-0.11194,0.90582,-0.86055,-1.0042
4,-0.068637,7.2665,-0.13096,0.95917,-0.96097,-1.1078
4,-0.090897,7.3813,-0.15254,1.0085,-1.0718,-1.2374
4,-0.11181,7.5017,-0.17601,1.052,-1.1955,-1.3828
4,-0.13143,7.625,-0.19969,1.0865,-1.3338,-1.5213
4,-0.15043,7.7501,-0.2223,1.1076,-1.4859,-1.6385
4,-0.17081,7.8762,-0.24345,1.1114,-1.6497,-1.734
4,-0.19448,8.0016,-0.26253,1.0963,-1.8231,-1.8061
4,-0.2213,8.1249,-0.27853,1.0642,-2.0038,-1.8507
4,-0.25047,8.2457,-0.29071,1.02,-2.1888,-1.8644
4,-0.28156,8.3647,-0.29949,0.9686,-2.3753,-1.8479
4,-0.3143,8.4828,-0.30638,0.9116,-2.5601,-1.8161
4,-0.34846,8.6002,-0.31288,0.84976,-2.7417,-1.7927
4,-0.38366,8.7152,-0.31981,0.78552,-2.9209,-1.795
4,-0.41956,8.8235,-0.3269,0.72091,-3.1004,-1.8321
4,-0.45631,8.9192,-0.33324,0.65348,-3.2837,-1.8969
4,-0.49407,8.9966,-0.33692,0.58032,-3.4733,-1.9645
4,-0.53253,9.0521,-0.33649,0.50042,-3.6698,-2.0208
4,-0.57109,9.0841,-0.33232,0.41528,-3.8719,-2.0685
4,-0.60889,9.0962,-0.32529,0.32748,-4.0787,-2.1105
4,-0.64559,9.0962,-0.31589,0.23759,-4.2898,-2.1392
4,-0.6814,9.0897,-0.3045,0.14546,-4.5037,-2.1446
4,-0.71666,9.0808,-0.29159,0.051498,-4.7182,-2.1219
4,-0.75143,9.0728,-0.27724,-0.043015,-4.9303,-2.0705
4,-0.78523,9.0668,-0.26062,-0.13537,-5.1374,-1.9922
4,-0.81691,9.0571,-0.24063,-0.22219,-5.3366,-1.8846
4,-0.84466,9.0368,-0.21631,-0.29982,-5.5251,-1.7406
4,-0.86747,9.0024,-0.18732,-0.36523,-5.6991,-1.5576
4,-0.88595,8.9555,-0.15462,-0.41561,-5.8549,-1.3417
4,-0.90104,8.9007,-0.11983,-0.45309,-5.9891,-1.1046
4,-0.91334,8.8398,-0.083795,-0.48413,-6.0995,-0.85913
4,-0.9233,8.7737,-0.046689,-0.51349,-6.1854,-0.61179
4,-0.93165,8.7032,-0.0085302,-0.54423,-6.2466,-0.36107
4,-0.93814,8.6292,0.030487,-0.57896,-6.2827,-0.10242
4,-0.94081,8.5527,0.069886,-0.61893,-6.293,0.16855
4,-0.93756,8.4748,0.10873,-0.65946,-6.2761,0.44763
4,-0.92668,8.3969,0.14539,-0.69469,-6.2313,0.7213
4,-0.90717,8.3217,0.17894,-0.72081,-6.1592,0.98392
4,-0.88033,8.2529,0.2098,-0.73802,-6.0608,1.2391
4,-0.84856,8.19,0.23859,-0.74947,-5.9369,1.4887
4,-0.81318,8.1279,0.26566,-0.75643,-5.788,1.7282
4,-0.77478,8.0628,0.2913,-0.75959,-5.6152,1.9507
4,-0.73372,7.9923,0.31598,-0.75967,-5.4201,2.1525
4,-0.69046,7.9149,0.33934,-0.75711,-5.2049,2.3288
4,-0.64546,7.8289,0.35993,-0.75208,-4.972,2.4727
4,-0.59945,7.7381,0.3766,-0.74452,-4.7247,2.5796
4,-0.55388,7.6474,0.38838,-0.73478,-4.4668,2.6445
4,-0.5096,7.5608,0.39445,-0.72397,-4.2023,2.6642
4,-0.46635,7.4794,0.39542,-0.7143,-3.9359,2.6464
4,-0.42386,7.4018,0.39281,-0.70592,-3.6713,2.6032
4,-0.38202,7.327,0.38747,-0.69641,-3.411,2.5444
4,-0.3407,7.2545,0.37983,-0.68393,-3.1565,2.4788
4,-0.2997,7.1838,0.37026,-0.6676,-2.9086,2.4118
4,-0.25947,7.1149,0.35904,-0.64693,-2.6675,2.3418
4,-0.22095,7.0486,0.34112,-0.6115,-2.4333,2.2208
4,-0.18436,6.9857,0.32252,-0.57353,-2.2112,2.0918
4,-0.14991,6.9274,0.30406,-0.53562,-2.002,1.959
4,-0.11828,6.8738,0.28626,-0.49993,-1.8061,1.8247
4,-0.089491,6.8243,0.26908,-0.46726,-1.6236,1.6873
4,-0.062938,6.7782,0.25249,-0.43696,-1.4549,1.5465
4,-0.038247,6.7351,0.23659,-0.40891,-1.3003,1.4063
4,-0.015122,6.6949,0.22145,-0.38318,-1.1596,1.2744
4,0.0067982,6.6571,0.20724,-0.36003,-1.0322,1.1594
4,0.027631,6.621,0.18713,-0.3256,-0.91626,1.0283
4,0.036789,6.6059,0.1767,-0.30779,-0.81343,0.66338
4,0.045589,6.5911,0.1662,-0.28999,-0.74709,0.61352
4,0.054235,6.5762,0.15571,-0.27274,-0.68574,0.56649
4,0.062917,6.5609,0.14567,-0.25625,-0.62909,0.52408
4,0.071799,6.5449,0.13619,-0.24034,-0.57668,0.48475
4,0.08112,6.5278,0.12695,-0.22458,-0.5282,0.44514
4,0.091155,6.5092,0.11772,-0.20874,-0.48369,0.4017
4,0.1022,6.4881,0.10826,-0.19263,-0.44352,0.34777
4,0.11479,6.4637,0.098174,-0.17582,-0.40874,0.27513
4,0.11479,6.4637,0.098174,-0.17582,-0.38123,0.27513
5,0.039211,6.1981,-0.045824,-0.053052,0.27886,-0.28904
5,0.032412,6.218,-0.049652,-0.073378,0.24996,-0.30252
5,0.024247,6.2286,-0.053908,-0.081046,0.21971,-0.32124
5,0.015715,6.2281,-0.057127,-0.09318,0.18758,-0.32822
5,0.0071966,6.2176,-0.059118,-0.10814,0.15476,-0.32152
5,-0.0014698,6.1995,-0.05995,-0.12359,0.12261,-0.30085
5,-0.010284,6.1753,-0.059815,-0.1389,0.092523,-0.26945
5,-0.019209,6.1458,-0.059006,-0.15464,0.065577,-0.23748
5,-0.028237,6.1118,-0.057593,-0.17004,0.041829,-0.21096
5,-0.037337,6.0752,-0.055226,-0.18311,0.020734,-0.19161
5,-0.046235,6.038,-0.051524,-0.19086,0.0015722,-0.18154
5,-0.054596,6.0003,-0.04656,-0.18972,-0.016582,-0.17994
5,-0.061973,5.9615,-0.040637,-0.17671,-0.034576,-0.18548
5,-0.06759,5.9229,-0.034151,-0.1505,-0.053124,-0.19899
5,-0.071091,5.888,-0.02737,-0.1122,-0.073023,-0.22066
5,-0.072723,5.8597,-0.020267,-0.064348,-0.095089,-0.24765
5,-0.072811,5.8377,-0.012883,-0.0089832,-0.11985,-0.26307
5,-0.071645,5.8204,-0.0052881,0.05283,-0.14616,-0.24849
5,-0.069484,5.8094,0.0024761,0.12018,-0.17101,-0.19507
5,-0.066761,5.8073,0.010373,0.19096,-0.19052,-0.1117
5,-0.063838,5.8164,0.018328,0.26306,-0.20169,-0.02046
5,-0.060708,5.8386,0.026429,0.33626,-0.20373,0.058906
5,-0.057027,5.8752,0.034585,0.41057,-0.19784,0.11372
5,-0.052586,5.9271,0.042076,0.48424,-0.18647,0.14079
5,-0.047544,5.9932,0.04845,0.55394,-0.17239,0.13919
5,-0.042004,6.0708,0.053816,0.617,-0.15847,0.11212
5,-0.036051,6.1573,0.058367,0.67417,-0.14726,0.068137
5,-0.029785,6.2515,0.062296,0.72675,-0.14045,0.026529
5,-0.023284,6.3522,0.065856,0.77319,-0.13779,0.0046607
5,-0.016591,6.4571,0.06909,0.81132,-0.13733,0.015078
5,-0.009579,6.5641,0.071549,0.84003,-0.13582,0.063731
5,-0.0017384,6.6728,0.072622,0.85934,-0.12945,0.14208
5,0.0071961,6.7826,0.071483,0.86947,-0.11524,0.2354
5,0.016562,6.8914,0.067441,0.86992,-0.091698,0.33211
5,0.02581,6.9958,0.060721,0.86116,-0.058488,0.43313
5,0.034909,7.0937,0.051898,0.84507,-0.015174,0.54409
5,0.043923,7.186,0.041335,0.8232,0.039235,0.62999
5,0.052946,7.2739,0.029351,0.79654,0.10223,0.64254
5,0.062228,7.3558,0.016167,0.7659,0.16649,0.55356
5,0.071419,7.4299,0.0021213,0.73234,0.22184,0.38002
5,0.079261,7.4965,-0.012335,0.69621,0.25985,0.17469
5,0.084536,7.5573,-0.027229,0.65659,0.27731,-0.013482
5,0.085939,7.6141,-0.042519,0.61276,0.27597,-0.15873
5,0.082296,7.6669,-0.057517,0.56558,0.26009,-0.26328
5,0.073899,7.7155,-0.071892,0.51714,0.23376,-0.33098
5,0.061792,7.7609,-0.085759,0.46943,0.20067,-0.36975
5,0.046618,7.8037,-0.099237,0.42253,0.16369,-0.39092
5,0.028918,7.8445,-0.11248,0.37592,0.1246,-0.41189
5,0.00905,7.884,-0.12571,0.33044,0.083411,-0.44836
5,-0.012348,7.9218,-0.13853,0.28776,0.038575,-0.50622
5,-0.034249,7.9565,-0.14989,0.24922,-0.012047,-0.58179
5,-0.056197,7.986,-0.15919,0.21517,-0.070226,-0.66723
5,-0.077842,8.0081,-0.1667,0.18492,-0.13695,-0.7589
5,-0.098472,8.0225,-0.17342,0.15708,-0.21284,-0.85892
5,-0.11797,8.0301,-0.18126,0.12977,-0.29873,-0.98535
5,-0.13661,8.0326,-0.19217,0.10131,-0.39727,-1.1611
5,-0.15455,8.0311,-0.20549,0.071114,-0.51337,-1.3588
5,-0.17201,8.0258,-0.21883,0.039246,-0.64925,-1.5228
5,-0.18919,8.0167,-0.23018,0.0059851,-0.80153,-1.6142
5,-0.20564,8.0055,-0.23831,-0.027967,-0.96296,-1.6322
5,-0.22052,7.9949,-0.24403,-0.060943,-1.1262,-1.6165
5,-0.23385,7.9876,-0.24873,-0.090514,-1.2878,-1.6067
5,-0.24746,7.984,-0.25341,-0.11464,-1.4485,-1.6209
5,-0.26455,7.9811,-0.25905,-0.13266,-1.6106,-1.6614
5,-0.28861,7.9751,-0.26578,-0.14523,-1.7767,-1.7257
5,-0.32254,7.9635,-0.27332,-0.15368,-1.9493,-1.8078
5,-0.36437,7.9459,-0.2815,-0.1589,-2.1301,-1.9017
5,-0.40874,7.923,-0.29016,-0.16082,-2.3202,-1.9988
5,-0.45131,7.8959,-0.29923,-0.15943,-2.5201,-2.0913
5,-0.48897,7.8658,-0.30885,-0.15657,-2.7292,-2.176
5,-0.52231,7.8347,-0.31901,-0.15531,-2.9468,-2.254
5,-0.55367,7.8049,-0.32895,-0.15866,-3.1722,-2.3239
5,-0.58466,7.7789,-0.33626,-0.16733,-3.4046,-2.371
5,-0.61657,7.7572,-0.33723,-0.17849,-3.6417,-2.3695
5,-0.64954,7.7396,-0.32867,-0.18809,-3.8787,-2.2914
5,-0.68324,7.7252,-0.30806,-0.19342,-4.1078,-2.1118
5,-0.71755,7.7133,-0.27698,-0.19412,-4.319,-1.8428
5,-0.75233,7.7041,-0.24045,-0.19138,-4.5033,-1.5278
5,-0.78765,7.6978,-0.20244,-0.18664,-4.6561,-1.2057
5,-0.82334,7.6923,-0.16601,-0.1809,-4.7766,-0.90863
5,-0.85853,7.6843,-0.13156,-0.17507,-4.8675,-0.64546
5,-0.89176,7.6703,-0.097907,-0.17023,-4.932,-0.41099
5,-0.91998,7.6493,-0.064287,-0.16737,-4.9731,-0.19542
5,-0.93901,7.6241,-0.030097,-0.16686,-4.9927,0.016735
5,-0.94596,7.5989,0.0047753,-0.16856,-4.991,0.23339
5,-0.93866,7.5767,0.040093,-0.17223,-4.9677,0.45712
5,-0.91834,7.5577,0.075404,-0.17779,-4.922,0.68546
5,-0.88964,7.5403,0.11034,-0.18514,-4.8534,0.9139
5,-0.85618,7.5227,0.14506,-0.19344,-4.762,1.141
5,-0.82098,7.504,0.17992,-0.20059,-4.6479,1.3677
5,-0.78543,7.4845,0.21487,-0.20425,-4.5111,1.5948
5,-0.74948,7.4645,0.24918,-0.20279,-4.3517,1.82
5,-0.71324,7.4441,0.2812,-0.1961,-4.1697,2.0342
5,-0.67676,7.4235,0.30879,-0.18604,-3.9662,2.2223
5,-0.63998,7.4025,0.33059,-0.17499,-3.744,2.3724
5,-0.60306,7.3807,0.34527,-0.16447,-3.5068,2.4727
5,-0.56674,7.3577,0.3527,-0.15441,-3.2595,2.5177
5,-0.53164,7.3339,0.35454,-0.14357,-3.0077,2.5149
5,-0.49753,7.3109,0.35204,-0.13074,-2.7562,2.4766
5,-0.4635,7.2911,0.34629,-0.1156,-2.5086,2.4259
5,-0.42878,7.2758,0.33822,-0.098631,-2.266,2.3909
5,-0.39339,7.2647,0.32829,-0.080153,-2.0269,2.3909
5,-0.35758,7.2571,0.31688,-0.059918,-1.7878,2.4221
5,-0.32143,7.252,0.30427,-0.037855,-1.5456,2.4707
5,-0.28479,7.2489,0.29045,-0.014982,-1.2985,2.527
5,-0.24812,7.2477,0.27574,0.0072299,-1.0458,2.5832
5,-0.21294,7.2489,0.26118,0.027481,-0.78751,2.6424
5,-0.18056,7.2531,0.24751,0.043971,-0.52327,2.7085
5,-0.15211,7.2612,0.23443,0.055342,-0.25242,2.7778
5,-0.1284,7.2728,0.22078,0.061775,0.025359,2.8421
5,-0.109,7.2873,0.20548,0.064418,0.30957,2.8908
5,-0.092909,7.3042,0.18955,0.073411,0.59865,2.8421
6,0.0353123,9.92342,0.043487,0.2684,0.28218,-0.22693
6,0.0356754,9.95685,0.046966,0.2521,0.25949,-0.17638
6,0.0372261,9.98998,0.047837,0.23761,0.24185,-0.13549
6,0.0406807,10.0215,0.046346,0.22273,0.2283,-0.10255
6,0.0462631,10.0487,0.042611,0.20626,0.21804,-0.079502
6,0.0536847,10.0688,0.03664,0.1884,0.21009,-0.074563
6,0.0624831,10.0804,0.02883,0.17022,0.20264,-0.090272
6,0.0724205,10.0843,0.019685,0.15285,0.19361,-0.12159
6,0.0834449,10.0836,0.0095919,0.13676,0.18145,-0.16062
6,0.0955133,10.0819,-0.0013374,0.12176,0.16539,-0.20216
6,0.107169,10.0821,-0.012695,0.10752,0.14517,-0.24243
6,0.116008,10.0855,-0.023915,0.093691,0.12093,-0.27395
6,0.120636,10.0915,-0.035019,0.080002,0.093535,-0.29226
6,0.120647,10.0987,-0.045936,0.066835,0.064309,-0.29999
6,0.115523,10.1057,-0.056184,0.055475,0.03431,-0.30252
6,0.105296,10.1118,-0.065604,0.047703,0.0040586,-0.30654
6,0.0909777,10.1173,-0.074252,0.044721,-0.026596,-0.31587
6,0.073618,10.1226,-0.082347,0.045914,-0.058183,-0.33252
6,0.054058,10.1278,-0.090762,0.049026,-0.091435,-0.3614
6,0.0325327,10.1331,-0.10053,0.051239,-0.12757,-0.40681
6,0.00992144,10.1385,-0.11141,0.050226,-0.16826,-0.46595
6,-0.0121537,10.1442,-0.12178,0.044887,-0.21485,-0.52823
6,-0.0328113,10.15,-0.12992,0.035476,-0.26767,-0.58031
6,-0.0511906,10.1551,-0.13464,0.023024,-0.3257,-0.61197
6,-0.0661058,10.1597,-0.13483,0.0085963,-0.3869,-0.6129
6,-0.0775233,10.1643,-0.13039,-0.0071428,-0.44819,-0.57685
6,-0.086021,10.1698,-0.12226,-0.023993,-0.50588,-0.50771
6,-0.0922745,10.1761,-0.11141,-0.041889,-0.55665,-0.41301
6,-0.0980795,10.1816,-0.09886,-0.060661,-0.59795,-0.30242
6,-0.105554,10.1844,-0.085186,-0.080074,-0.62819,-0.18231
6,-0.115659,10.1826,-0.071578,-0.099983,-0.64642,-0.060157
6,-0.127546,10.1752,-0.059859,-0.12005,-0.65244,0.051626
6,-0.139197,10.1624,-0.051106,-0.13923,-0.64727,0.14427
6,-0.148624,10.1447,-0.046372,-0.15661,-0.63285,0.2114
6,-0.154146,10.1229,-0.046786,-0.17233,-0.61171,0.24857
6,-0.15549,10.0975,-0.052084,-0.18754,-0.58685,0.25984
6,-0.153548,10.0693,-0.061402,-0.20333,-0.56087,0.25018
6,-0.149204,10.0388,-0.073889,-0.21937,-0.53585,0.22354
6,-0.143662,10.0065,-0.087588,-0.23375,-0.5135,0.19088
6,-0.13784,9.97291,-0.10036,-0.24381,-0.49441,0.16475
6,-0.133234,9.93849,-0.11084,-0.24723,-0.47793,0.15399
6,-0.131872,9.90413,-0.11892,-0.24319,-0.46253,0.15966
6,-0.135023,9.87153,-0.12579,-0.23226,-0.44657,0.17003
6,-0.143934,9.84193,-0.13275,-0.21551,-0.42956,0.16947
6,-0.159677,9.81498,-0.14084,-0.19408,-0.41262,0.14455
6,-0.18169,9.78917,-0.15034,-0.16935,-0.39816,0.088965
6,-0.208825,9.76316,-0.16085,-0.14233,-0.38927,0.0065025
6,-0.240052,9.73737,-0.17193,-0.11343,-0.38862,-0.096076
6,-0.273255,9.71413,-0.18313,-0.082265,-0.39822,-0.21245
6,-0.306278,9.69678,-0.19415,-0.048082,-0.41947,-0.33821
6,-0.337348,9.68812,-0.20433,-0.010808,-0.45329,-0.46916
6,-0.365394,9.68887,-0.21314,0.028636,-0.50021,-0.60214
6,-0.390768,9.69792,-0.22031,0.068638,-0.56042,-0.73397
6,-0.414128,9.71371,-0.2251,0.10798,-0.63382,-0.85673
6,-0.435835,9.73468,-0.2266,0.14679,-0.71949,-0.96217
6,-0.456162,9.75885,-0.22477,0.18599,-0.81571,-1.05
6,-0.475255,9.78468,-0.22019,0.22632,-0.92071,-1.1234
6,-0.493064,9.81192,-0.21344,0.26719,-1.0331,-1.1856
6,-0.509929,9.84195,-0.2056,0.3061,-1.1516,-1.2428
6,-0.526144,9.87675,-0.19771,0.34002,-1.2759,-1.3007
6,-0.541889,9.91688,-0.19047,0.36711,-1.406,-1.3638
6,-0.558152,9.96141,-0.18432,0.3876,-1.5423,-1.4355
6,-0.575646,10.0088,-0.17916,0.40296,-1.6859,-1.5125
6,-0.594133,10.0579,-0.1747,0.41438,-1.8371,-1.5866
6,-0.612875,10.1086,-0.17082,0.42285,-1.9958,-1.6496
6,-0.631236,10.1611,-0.16756,0.42942,-2.1608,-1.6953
6,-0.649203,10.2158,-0.16466,0.43393,-2.3303,-1.7213
6,-0.666936,10.2718,-0.16154,0.43468,-2.5024,-1.7288
6,-0.684462,10.3263,-0.1573,0.4288,-2.6753,-1.7175
6,-0.701698,10.3768,-0.15056,0.41421,-2.8471,-1.6831
6,-0.718287,10.4223,-0.14018,0.39176,-3.0154,-1.6206
6,-0.734037,10.4641,-0.12551,0.36372,-3.1774,-1.5268
6,-0.749081,10.5038,-0.10666,0.33206,-3.3301,-1.403
6,-0.763526,10.5425,-0.084411,0.29827,-3.4704,-1.2555
6,-0.777478,10.5804,-0.059926,0.26318,-3.5959,-1.0923
6,-0.791283,10.6177,-0.034176,0.2269,-3.7052,-0.91829
6,-0.804573,10.6525,-0.0074704,0.18881,-3.797,-0.73389
6,-0.816146,10.6813,0.020117,0.14889,-3.8704,-0.53818
6,-0.824522,10.6996,0.048428,0.10894,-3.9242,-0.3318
6,-0.827267,10.7052,0.077219,0.070553,-3.9574,-0.11783
6,-0.822258,10.7004,0.106,0.033135,-3.9692,0.098886
6,-0.809178,10.6888,0.13446,-0.0054601,-3.9593,0.31579
6,-0.78896,10.6729,0.16265,-0.046648,-3.9277,0.53247
6,-0.762954,10.6544,0.1906,-0.09006,-3.8745,0.74652
6,-0.732728,10.6349,0.21834,-0.13527,-3.7998,0.95533
6,-0.699588,10.6149,0.2462,-0.18211,-3.7043,1.1585
6,-0.664144,10.5934,0.27366,-0.2287,-3.5884,1.3529
6,-0.626701,10.5695,0.29936,-0.27164,-3.4531,1.5329
6,-0.587605,10.5442,0.32212,-0.30707,-3.2999,1.6937
6,-0.547259,10.5179,0.34,-0.33352,-3.1305,1.8254
6,-0.506288,10.4886,0.35134,-0.35342,-2.9479,1.9193
6,-0.465115,10.4531,0.35598,-0.36999,-2.756,1.9744
6,-0.423788,10.4105,0.354,-0.38526,-2.5586,1.9907
6,-0.382335,10.3624,0.34559,-0.40067,-2.3595,1.9686
6,-0.340789,10.3098,0.33147,-0.41751,-2.1626,1.9131
6,-0.298891,10.2535,0.31329,-0.43584,-1.9713,1.8374
6,-0.257254,10.1951,0.2928,-0.45423,-1.7876,1.753
6,-0.217426,10.138,0.27147,-0.47138,-1.6123,1.6673
6,-0.180278,10.0854,0.25265,-0.47661,-1.4456,1.5663
6,-0.14727,10.0381,0.2327,-0.48219,-1.2889,1.4524
6,-0.119582,9.99356,0.21195,-0.48612,-1.1437,1.3304
6,-0.0972155,9.94886,0.19062,-0.48578,-1.0106,1.2028
6,-0.0809633,9.90241,0.16871,-0.4807,-0.89036,1.0704
6,-0.0717827,9.85308,0.14621,-0.47261,-0.78332,0.93524
6,-0.0697817,9.7999,0.12309,-0.46276,-0.68979,0.79794
6,-0.0730094,9.74325,0.099109,-0.45073,-0.61,0.6568
6,-0.0785357,9.68498,0.074456,-0.43626,-0.54432,0.5125
6,-0.0837655,9.62679,0.054542,-0.4077,-0.49307,0.39372
6,-0.0823061,9.59099,0.037861,-0.40147,-0.4537,0.31467
6,-0.0818567,9.55355,0.021627,-0.3975,-0.42223,0.23798
6,-0.0823814,9.51638,0.0066117,-0.39468,-0.39843,0.1654
6,-0.0838741,9.48157,-0.0069539,-0.39141,-0.38189,0.098271
6,-0.0863624,9.44914,-0.018252,-0.38653,-0.37207,0.04122
6,-0.0899121,9.41713,-0.026114,-0.37891,-0.36794,0.0018295
6,-0.0946165,9.38432,-0.029662,-0.36714,-0.36776,-0.0154
7,-0.114426,9.56585,0.0050836,-0.13954,-0.24618,0.066312
7,-0.116795,9.5639,0.0074445,-0.14247,-0.23955,0.088295
7,-0.120148,9.55461,0.009996,-0.14587,-0.23072,0.10484
7,-0.123349,9.53872,0.012611,-0.14941,-0.22023,0.11772
7,-0.124999,9.51965,0.015212,-0.15286,-0.20846,0.13009
7,-0.124567,9.50072,0.017753,-0.15619,-0.19545,0.13949
7,-0.122647,9.48338,0.020191,-0.15956,-0.1815,0.13957
7,-0.119906,9.46754,0.022531,-0.16308,-0.16754,0.12879
7,-0.116637,9.45282,0.024811,-0.16677,-0.15467,0.11115
7,-0.113061,9.43908,0.026966,-0.17045,-0.14355,0.093659
7,-0.109342,9.42631,0.029041,-0.17358,-0.13419,0.24235
7,-0.106237,9.40914,0.034099,-0.1831,-0.10995,0.18692
7,-0.102431,9.39081,0.040077,-0.18654,-0.091259,0.13475
7,-0.0980315,9.37162,0.045553,-0.18342,-0.077784,0.092656
7,-0.0931286,9.35185,0.048794,-0.17531,-0.068519,0.063501
7,-0.087796,9.33156,0.04878,-0.16416,-0.062168,0.042243
7,-0.0821208,9.31055,0.045585,-0.15111,-0.057944,0.014842
7,-0.076123,9.28861,0.039944,-0.13647,-0.05646,-0.022494
7,-0.0697659,9.26566,0.032421,-0.12039,-0.058709,-0.068638
7,-0.0631907,9.242,0.023399,-0.10321,-0.065573,-0.12116
7,-0.0563429,9.21869,0.013199,-0.085193,-0.077689,-0.17881
7,-0.0485984,9.19771,0.0024163,-0.063811,-0.09557,-0.25863
7,-0.0399935,9.18153,-0.0095375,-0.040864,-0.12143,-0.34233
7,-0.0322431,9.17188,-0.022592,-0.016899,-0.15567,-0.43005
7,-0.0274109,9.16904,-0.036109,0.0071641,-0.19867,-0.5179
7,-0.0270065,9.1724,-0.049345,0.030395,-0.25046,-0.59695
7,-0.0314761,9.18116,-0.061749,0.052429,-0.31016,-0.65583
7,-0.0400172,9.19461,-0.072853,0.073224,-0.37574,-0.68772
7,-0.051795,9.21204,-0.082796,0.092586,-0.44451,-0.69667
7,-0.0662635,9.23266,-0.091772,0.11022,-0.51418,-0.69168
7,-0.0829449,9.25593,-0.099894,0.12591,-0.58334,-0.67568
7,-0.101404,9.28151,-0.10769,0.13941,-0.65091,-0.64795
7,-0.121505,9.30908,-0.11519,0.14997,-0.71571,-0.61209
7,-0.143215,9.33782,-0.1211,0.15632,-0.77692,-0.56692
7,-0.165347,9.36618,-0.12396,0.15745,-0.83361,-0.50979
7,-0.186487,9.39235,-0.12266,0.15302,-0.88459,-0.43582
7,-0.20562,9.4154,-0.11675,0.1433,-0.92817,-0.33758
7,-0.221829,9.43506,-0.10692,0.12893,-0.96193,-0.21705
7,-0.235358,9.45083,-0.093993,0.11074,-0.98363,-0.079238
7,-0.246734,9.46243,-0.078488,0.089496,-0.99156,0.072435
7,-0.256132,9.4705,-0.060857,0.065719,-0.98431,0.23561
7,-0.263985,9.47653,-0.041514,0.039705,-0.96075,0.40799
7,-0.270377,9.48147,-0.020583,0.011788,-0.91995,0.59033
7,-0.274441,9.48451,0.0019059,-0.017236,-0.86092,0.77873
7,-0.275328,9.48394,0.024775,-0.045854,-0.78305,0.95668
7,-0.272324,9.47845,0.046608,-0.072247,-0.68738,1.1075
7,-0.264969,9.46776,0.066487,-0.095476,-0.57663,1.2201
7,-0.253857,9.45248,0.083321,-0.11534,-0.45462,1.2901
7,-0.239781,9.43352,0.096766,-0.13105,-0.3256,1.3253
7,-0.22324,9.41165,0.10694,-0.14133,-0.19307,1.3318
7,-0.20466,9.38736,0.11365,-0.14544,-0.059887,1.3089
7,-0.184432,9.36093,0.11704,-0.14388,0.071004,1.2588
7,-0.162671,9.33266,0.11761,-0.13782,0.19688,1.1856
7,-0.139403,9.30335,0.11536,-0.12764,0.31544,1.0906
7,-0.115798,9.27447,0.11015,-0.11305,0.4245,0.97377
7,-0.0932697,9.24785,0.10185,-0.093898,0.52188,0.83654
7,-0.0726449,9.22445,0.090407,-0.070407,0.60553,0.68157
7,-0.0551877,9.20438,0.076305,-0.043176,0.67369,0.51437
7,-0.0418251,9.18873,0.060078,-0.012908,0.72513,0.33926
7,-0.0328502,9.17976,0.042087,0.019804,0.75905,0.15767
7,-0.0288344,9.17963,0.022636,0.054546,0.77482,-0.029454
7,-0.0299084,9.18877,0.0019906,0.091132,0.77187,-0.22101
7,-0.0351666,9.20582,-0.019728,0.12918,0.74977,-0.41784
7,-0.0437152,9.22923,-0.042447,0.16766,0.70799,-0.61347
7,-0.0550253,9.25784,-0.06542,0.20537,0.64664,-0.79413
7,-0.0686332,9.29065,-0.087795,0.2415,0.56723,-0.94861
7,-0.084155,9.32694,-0.1092,0.27631,0.47237,-1.0727
7,-0.101247,9.36613,-0.12891,0.31037,0.3651,-1.1716
7,-0.119625,9.40771,-0.14619,0.34261,0.24794,-1.2557
7,-0.139067,9.45126,-0.16071,0.37042,0.12237,-1.3278
7,-0.159388,9.49646,-0.1717,0.39123,-0.010413,-1.3808
7,-0.180451,9.54319,-0.17854,0.404,-0.14849,-1.4108
7,-0.202127,9.59102,-0.18169,0.40962,-0.28957,-1.4205
7,-0.224297,9.63868,-0.1819,0.40951,-0.43162,-1.414
7,-0.246639,9.68521,-0.17969,0.40492,-0.57302,-1.3951
7,-0.26886,9.73086,-0.17548,0.39658,-0.71253,-1.3678
7,-0.291046,9.77708,-0.1696,0.38435,-0.84931,-1.3361
7,-0.313007,9.82513,-0.16233,0.36817,-0.98293,-1.3035
7,-0.334214,9.87395,-0.1537,0.34873,-1.1133,-1.2699
7,-0.354273,9.9206,-0.14378,0.32733,-1.2403,-1.2348
7,-0.372236,9.96208,-0.1328,0.30507,-1.3637,-1.1984
7,-0.38699,9.99676,-0.12093,0.28204,-1.4836,-1.1616
7,-0.398538,10.0251,-0.10833,0.25843,-1.5997,-1.1263
7,-0.407513,10.0483,-0.095123,0.23541,-1.7124,-1.098
7,-0.41441,10.0677,-0.081668,0.21386,-1.8222,-1.0808
7,-0.41959,10.0838,-0.068265,0.19349,-1.9303,-1.0738
7,-0.423362,10.0956,-0.054921,0.173,-2.0376,-1.07
7,-0.425903,10.1025,-0.041598,0.15124,-2.1446,-1.0558
7,-0.427018,10.1052,-0.028365,0.12864,-2.2502,-1.0208
7,-0.426624,10.1059,-0.016055,0.10662,-2.3523,-0.96648
7,-0.424983,10.1066,-0.0063524,0.086737,-2.4489,-0.90533
7,-0.422308,10.1073,-0.00094464,0.070314,-2.5395,-0.85063
7,-0.418779,10.1079,-0.00078148,0.057879,-2.6245,-0.8104
7,-0.414544,10.1095,-0.0060626,0.049178,-2.7056,-0.78856
7,-0.409974,10.1129,-0.016578,0.043382,-2.7844,-0.78826
7,-0.405391,10.1178,-0.031562,0.040291,-2.8633,-0.81019
7,-0.400888,10.1231,-0.049716,0.041104,-2.9443,-0.84966
7,-0.396202,10.1276,-0.069999,0.046317,-3.0292,-0.90137
7,-0.390944,10.1312,-0.091879,0.054335,-3.1194,-0.96227
7,-0.386384,10.1338,-0.11471,0.06256,-3.2156,-1.0287
7,-0.38494,10.1356,-0.13741,0.069536,-3.3185,-1.0949
7,-0.38888,10.1374,-0.15875,0.075748,-3.428,-1.1528
7,-0.400101,10.1408,-0.17814,0.081117,-3.5433,-1.1965
7,-0.419638,10.1466,-0.19573,0.083815,-3.6629,-1.2212
7,-0.447567,10.1545,-0.21165,0.081953,-3.785,-1.2237
7,-0.482714,10.1644,-0.22564,0.074951,-3.9074,-1.2052
7,-0.522794,10.1778,-0.2374,0.063663,-4.0279,-1.1716
7,-0.565902,10.1951,-0.24661,0.049442,-4.1451,-1.1313
7,-0.610777,10.2138,-0.25339,0.033347,-4.2582,-1.0929
7,-0.656035,10.231,-0.25688,0.016163,-4.3675,-1.0586
7,-0.699793,10.2457,-0.25511,-0.0018507,-4.4734,-1.0181
7,-0.73981,10.2588,-0.24647,-0.021563,-4.5752,-0.95824
7,-0.77506,10.2701,-0.22959,-0.044321,-4.671,-0.8688
7,-0.806012,10.2771,-0.20364,-0.070721,-4.7579,-0.74246
7,-0.833275,10.2768,-0.16865,-0.10034,-4.8321,-0.57165
7,-0.856672,10.2677,-0.1259,-0.13285,-4.8893,-0.35123
7,-0.875686,10.2504,-0.077751,-0.16877,-4.9244,-0.086393
7,-0.889428,10.2265,-0.026224,-0.20806,-4.933,0.21523
7,-0.897716,10.1979,0.027156,-0.24881,-4.9115,0.54139
7,-0.900137,10.1662,0.080924,-0.28874,-4.8574,0.8756
7,-0.895164,10.1319,0.13329,-0.32711,-4.7698,1.1998
7,-0.881811,10.0943,0.18199,-0.36458,-4.6498,1.4976
7,-0.859273,10.0522,0.22599,-0.40062,-4.5001,1.7646
7,-0.826927,10.0052,0.26575,-0.43268,-4.3236,2.0011
7,-0.784874,9.95377,0.30187,-0.4577,-4.1235,2.2077
7,-0.734514,9.8987,0.33418,-0.47417,-3.9027,2.3831
7,-0.678296,9.8403,0.36213,-0.48264,-3.6644,2.5261
7,-0.61835,9.77898,0.38475,-0.48474,-3.4118,2.6339
7,-0.556465,9.71621,0.40195,-0.48226,-3.1484,2.71
7,-0.494187,9.65357,0.41411,-0.47638,-2.8774,2.7618
7,-0.433216,9.59145,0.4184,-0.46575,-2.6012,2.7867
7,-0.375827,9.52962,0.41763,-0.45269,-2.3226,2.7918
7,-0.323073,9.46887,0.41154,-0.43672,-2.0434,2.7751
7,-0.274508,9.41177,0.39993,-0.41776,-1.7659,2.7363
7,-0.229528,9.36142,0.38298,-0.39616,-1.4923,2.6712
7,-0.188316,9.31939,0.36147,-0.37248,-1.2251,2.5691
7,-0.151432,9.28512,0.33674,-0.34691,-0.96823,2.4222
7,-0.119931,9.25701,0.30992,-0.31916,-0.72601,2.2263
7,-0.0938195,9.2334,0.28199,-0.28943,-0.50338,1.9913
7,-0.0719152,9.21341,0.25085,-0.25811,-0.30425,1.7691
7,-0.0583611,9.20035,0.23196,-0.239,-0.12734,1.1465
7,-0.0465501,9.18888,0.21296,-0.21793,-0.012696,1.0543
7,-0.0361956,9.17873,0.19446,-0.19501,0.092739,0.96665
7,-0.0270647,9.16966,0.17626,-0.17151,0.1894,0.88171
8,-0.19365,5.3803,0.021615,0.75597,0.27477,0.0054479
8,-0.18162,5.451,0.021967,0.81333,0.27532,0.03903
8,-0.17162,5.5199,0.020775,0.84944,0.27922,0.0293
8,-0.16438,5.591,0.018226,0.8638,0.28215,-0.005301
8,-0.16023,5.6665,0.015113,0.85894,0.28162,-0.05084
8,-0.15901,5.7464,0.012067,0.84142,0.27654,-0.099131
8,-0.15978,5.8283,0.0093777,0.81772,0.26662,-0.14558
8,-0.16181,5.9097,0.0073504,0.79269,0.25207,-0.18611
8,-0.1647,5.9893,0.0058403,0.76948,0.23345,-0.22115
8,-0.1681,6.0661,0.004704,0.74904,0.21134,-0.25167
8,-0.17203,6.1362,0.0038043,0.73092,0.18617,-0.10566
8,-0.16948,6.2749,-0.0027505,0.71432,0.17561,-0.25511
8,-0.16872,6.3996,-0.0077937,0.6965,0.15009,-0.38867
8,-0.16995,6.5032,-0.010881,0.67409,0.11123,-0.50487
8,-0.17249,6.5828,-0.012497,0.64496,0.06074,-0.60649
8,-0.17555,6.6424,-0.013427,0.60856,9.11E-05,-0.69216
8,-0.17864,6.6886,-0.014587,0.56593,-0.069125,-0.76324
8,-0.18115,6.7278,-0.015895,0.51814,-0.14545,-0.81728
8,-0.18314,6.7653,-0.016646,0.46584,-0.22718,-0.85215
8,-0.18471,6.8034,-0.015803,0.41085,-0.31239,-0.86486
8,-0.18604,6.8421,-0.012898,0.35904,-0.39888,-0.85219
8,-0.18713,6.8796,-0.011743,0.27677,-0.4841,-0.87564
8,-0.18721,6.9129,-0.0084116,0.20657,-0.57166,-0.86023
8,-0.18614,6.9392,-0.0031154,0.15237,-0.65768,-0.8141
8,-0.18523,6.9564,0.0031218,0.11523,-0.73909,-0.74802
8,-0.18586,6.9635,0.0092886,0.091481,-0.8139,-0.66709
8,-0.18895,6.9602,0.01493,0.07693,-0.8806,-0.57164
8,-0.1936,6.946,0.019577,0.06715,-0.93777,-0.46419
8,-0.19799,6.9209,0.023362,0.057012,-0.98419,-0.3489
8,-0.19971,6.8878,0.026454,0.043446,-1.0191,-0.23475
8,-0.19783,6.8543,0.029031,0.026255,-1.0426,-0.12988
8,-0.19297,6.8285,0.031144,0.0071627,-1.0555,-0.035533
8,-0.18554,6.8127,0.032372,-0.011521,-1.0591,0.048312
8,-0.17618,6.8079,0.032953,-0.028076,-1.0543,0.12574
8,-0.16625,6.8132,0.034481,-0.040804,-1.0417,0.21208
8,-0.15697,6.8254,0.038521,-0.048063,-1.0205,0.31428
8,-0.14878,6.8425,0.045826,-0.049363,-0.98905,0.43305
8,-0.142,6.8621,0.055376,-0.045252,-0.94575,0.55943
8,-0.13641,6.8794,0.064988,-0.036001,-0.8898,0.6794
8,-0.1318,6.8903,0.071676,-0.021866,-0.82186,0.7724
8,-0.12798,6.8946,0.074195,-0.0061644,-0.74462,0.82546
8,-0.12484,6.8939,0.072975,0.007878,-0.66208,0.84057
8,-0.12246,6.8899,0.068142,0.020956,-0.57802,0.81949
8,-0.12024,6.883,0.060354,0.03419,-0.49607,0.76979
8,-0.11626,6.8748,0.050646,0.047935,-0.41909,0.69902
8,-0.10882,6.8674,0.039917,0.061912,-0.34919,0.60617
8,-0.0973,6.8614,0.028646,0.074521,-0.28857,0.48544
8,-0.08285,6.8555,0.017176,0.085578,-0.24003,0.3334
8,-0.068013,6.8489,0.0055556,0.098021,-0.20669,0.15883
8,-0.056357,6.844,-0.0062033,0.115,-0.19081,-0.019407
8,-0.049439,6.842,-0.01809,0.13731,-0.19275,-0.18382
8,-0.04702,6.8442,-0.030049,0.16392,-0.21113,-0.33086
8,-0.049257,6.8546,-0.041975,0.19382,-0.24422,-0.46568
8,-0.055477,6.8763,-0.054126,0.22649,-0.29078,-0.59195
8,-0.064953,6.9091,-0.067395,0.26052,-0.34998,-0.72031
8,-0.077136,6.9492,-0.082604,0.29385,-0.42201,-0.85739
8,-0.091491,6.9915,-0.10006,0.32644,-0.50775,-1.0054
8,-0.10765,7.0333,-0.11919,0.36092,-0.60829,-1.1607
8,-0.1253,7.0754,-0.13822,0.3984,-0.72437,-1.312
8,-0.14421,7.1203,-0.15474,0.43587,-0.85557,-1.442
8,-0.16416,7.1692,-0.16766,0.47023,-0.99976,-1.5415
8,-0.18493,7.2218,-0.17695,0.49891,-1.1539,-1.611
8,-0.20642,7.2775,-0.18253,0.51872,-1.315,-1.6508
8,-0.22849,7.336,-0.18495,0.52835,-1.4801,-1.6665
8,-0.25105,7.3958,-0.1848,0.52874,-1.6467,-1.662
8,-0.27403,7.4551,-0.18249,0.52257,-1.8129,-1.6367
8,-0.29743,7.5143,-0.17844,0.5129,-1.9766,-1.5883
8,-0.32122,7.5773,-0.17297,0.50155,-2.1354,-1.5153
8,-0.34446,7.6457,-0.16624,0.48838,-2.287,-1.4235
8,-0.36584,7.7158,-0.15854,0.47224,-2.4293,-1.323
8,-0.38477,7.7824,-0.15034,0.45264,-2.5616,-1.2272
8,-0.40092,7.842,-0.14196,0.43022,-2.6843,-1.1467
8,-0.41432,7.8921,-0.13318,0.40621,-2.799,-1.0837
8,-0.42538,7.933,-0.12354,0.38191,-2.9074,-1.0384
8,-0.43455,7.9666,-0.11276,0.35873,-3.0112,-1.0077
8,-0.44211,7.9943,-0.10097,0.3375,-3.112,-0.98669
8,-0.44837,8.0173,-0.088358,0.31695,-3.2107,-0.97225
8,-0.45358,8.0364,-0.074998,0.2944,-3.3079,-0.96238
8,-0.45779,8.0522,-0.061576,0.26903,-3.4041,-0.95905
8,-0.46128,8.0648,-0.048959,0.24339,-3.5,-0.96587
8,-0.46484,8.0745,-0.037469,0.22046,-3.5966,-0.98305
8,-0.46885,8.0822,-0.027101,0.20203,-3.6949,-1.0089
8,-0.47277,8.0899,-0.017708,0.18906,-3.7958,-1.0417
8,-0.47557,8.0998,-0.0091082,0.18123,-3.9,-1.0783
8,-0.47657,8.1133,-0.0011843,0.17756,-4.0078,-1.1125
8,-0.47598,8.1301,0.0061474,0.17719,-4.1191,-1.1381
8,-0.47414,8.1482,0.013029,0.17951,-4.2329,-1.1506
8,-0.47122,8.1661,0.019544,0.18401,-4.3479,-1.1482
8,-0.46761,8.1838,0.025632,0.19039,-4.4628,-1.1332
8,-0.46376,8.2025,0.031497,0.19874,-4.5761,-1.1086
8,-0.4597,8.2234,0.037823,0.20906,-4.6869,-1.0687
8,-0.45513,8.2461,0.044919,0.22058,-4.7938,-1.0021
8,-0.44973,8.2702,0.052198,0.23142,-4.894,-0.90424
8,-0.4436,8.2955,0.058575,0.23951,-4.9844,-0.77758
8,-0.43692,8.3217,0.063337,0.24374,-5.0622,-0.62842
8,-0.42981,8.3487,0.066658,0.24427,-5.125,-0.46452
8,-0.42232,8.3763,0.068892,0.24211,-5.1715,-0.29051
8,-0.4145,8.4044,0.070167,0.23814,-5.2005,-0.10932
8,-0.40653,8.433,0.070834,0.2327,-5.2115,0.077592
8,-0.39829,8.4623,0.071228,0.22577,-5.2037,0.26964
8,-0.38919,8.4926,0.071389,0.21738,-5.1767,0.46523
8,-0.37901,8.5234,0.071187,0.20776,-5.1302,0.66191
8,-0.36838,8.5528,0.070486,0.19715,-5.064,0.85875
8,-0.35842,8.5788,0.069341,0.18573,-4.9782,1.0533
8,-0.3499,8.6008,0.067867,0.17363,-4.8728,1.236
8,-0.34266,8.6186,0.066148,0.16098,-4.7492,1.397
8,-0.33636,8.6324,0.064185,0.14786,-4.6095,1.5278
8,-0.33088,8.6424,0.06193,0.13436,-4.4568,1.6243
8,-0.32594,8.6492,0.059591,0.1206,-4.2943,1.6925
8,-0.3213,8.6541,0.057682,0.10658,-4.1251,1.7404
8,-0.31693,8.6581,0.056524,0.092207,-3.951,1.7712
8,-0.31275,8.6616,0.056257,0.077524,-3.7739,1.7853
8,-0.30876,8.6645,0.056885,0.062798,-3.5954,1.7823
8,-0.30492,8.667,0.058412,0.04818,-3.4171,1.7631
8,-0.30118,8.669,0.061024,0.03304,-3.2408,1.7311
8,-0.29752,8.6707,0.064632,0.01679,-3.0677,1.6905
8,-0.29395,8.672,0.068999,0.00013612,-2.8987,1.6435
8,-0.29063,8.6731,0.073988,-0.015958,-2.7343,1.5915
8,-0.28734,8.6742,0.079259,-0.031576,-2.5752,1.534
8,-0.28292,8.6755,0.084601,-0.048128,-2.4218,1.4711
8,-0.27614,8.677,0.09006,-0.066915,-2.2747,1.4039
8,-0.2665,8.6784,0.095557,-0.0874,-2.1343,1.3332
8,-0.25461,8.6783,0.10076,-0.10772,-2.001,1.2571
8,-0.2416,8.6752,0.10528,-0.12618,-1.8753,1.1742
8,-0.22785,8.6668,0.10883,-0.14138,-1.7578,1.0889
8,-0.2134,8.6522,0.11113,-0.15253,-1.6489,1.007
8,-0.19836,8.6327,0.11225,-0.15996,-1.5483,0.93546
8,-0.18291,8.6105,0.1126,-0.16431,-1.4547,0.88144
8,-0.16742,8.586,0.11214,-0.16609,-1.3666,0.84515
8,-0.1521,8.5578,0.10982,-0.16571,-1.282,0.82341
8,-0.13681,8.5243,0.10947,-0.17692,-1.1997,0.79007
8,-0.12164,8.4868,0.10637,-0.18923,-1.1207,0.74853
8,-0.10725,8.4491,0.10101,-0.20148,-1.0458,0.69998
8,-0.094357,8.4146,0.09442,-0.21192,-0.97585,0.64983
8,-0.083521,8.3862,0.086926,-0.21822,-0.91087,0.59916
8,-0.075254,8.3656,0.078461,-0.21841,-0.85095,0.54698
8,-0.069455,8.3521,0.069052,-0.21216,-0.79625,0.49299
8,-0.065435,8.3445,0.058693,-0.19996,-0.74696,0.43665
8,-0.063069,8.342,0.047469,-0.18182,-0.70329,0.37844
8,-0.063284,8.344,0.039808,-0.16771,-0.66545,0.33314
8,-0.057215,8.3232,0.033853,-0.15889,-0.63213,0.23763
8,-0.05375,8.3,0.027308,-0.1469,-0.60837,0.21623
8,-0.052594,8.2754,0.02045,-0.13334,-0.58675,0.19449
8,-0.052761,8.2514,0.013671,-0.12012,-0.5673,0.17579
8,-0.053999,8.2304,0.007358,-0.10922,-0.54972,0.16145
8,-0.056475,8.2154,0.0019788,-0.10229,-0.53357,0.15143
8,-0.060256,8.2084,-0.0023297,-0.099793,-0.51843,0.14327
8,-0.06552,8.2106,-0.0058745,-0.10176,-0.5041,0.12987
8,-0.072484,8.2224,-0.008559,-0.10872,-0.49112,0.1034
8,-0.072484,8.2224,-0.008559,-0.10872,-0.48078,0.1034
9,-0.083036,7.1053,0.046033,0.15396,-0.2978,0.35603
9,-0.075801,7.1218,0.042643,0.17811,-0.2622,0.35564
9,-0.067433,7.1493,0.037304,0.19755,-0.22663,0.34465
9,-0.058339,7.1909,0.031104,0.21286,-0.19217,0.33259
9,-0.049052,7.2429,0.025067,0.22375,-0.15891,0.31966
9,-0.040066,7.2981,0.019612,0.23005,-0.12694,0.30376
9,-0.031842,7.3517,0.01452,0.23245,-0.096568,0.28591
9,-0.024723,7.3989,0.0097809,0.23232,-0.067977,0.26691
9,-0.019176,7.4375,0.0053406,0.23106,-0.041286,0.24711
9,-0.016851,7.4688,0.0011211,0.22908,-0.016575,0.22637
9,-0.019231,7.4939,-0.0029619,0.22491,0.0060621,0.20438
9,-0.026795,7.5134,-0.0072544,0.21659,0.0265,0.1788
9,-0.037855,7.5291,-0.011832,0.20277,0.04438,0.14886
9,-0.049835,7.5418,-0.01654,0.18196,0.059266,0.11561
9,-0.060378,7.5509,-0.021159,0.15576,0.070828,0.081302
9,-0.068599,7.5556,-0.025474,0.12789,0.078958,0.048254
9,-0.075124,7.5567,-0.029267,0.10098,0.083783,0.01856
9,-0.080193,7.556,-0.03253,0.078118,0.085639,-0.0065897
9,-0.084044,7.5555,-0.034697,0.061617,0.08498,-0.02519
9,-0.086914,7.5553,-0.033843,0.052363,0.082461,-0.032521
9,-0.08896,7.5551,-0.028392,0.051057,0.079209,-0.026486
9,-0.090309,7.555,-0.017973,0.05823,0.076561,-0.01071
9,-0.091097,7.5549,-0.0044579,0.073153,0.07549,0.0058861
9,-0.091419,7.5548,0.0094345,0.094653,0.076078,0.016819
9,-0.09137,7.5545,0.021408,0.12271,0.07776,0.02288
9,-0.091014,7.5539,0.030694,0.15742,0.080048,0.024223
9,-0.090377,7.5536,0.037988,0.19771,0.08247,0.014719
9,-0.089784,7.5551,0.043588,0.24126,0.083942,-0.011485
9,-0.088569,7.5608,0.047767,0.28595,0.082794,-0.057189
9,-0.084538,7.5736,0.050796,0.33144,0.077075,-0.12108
9,-0.076016,7.596,0.052867,0.37796,0.064966,-0.19839
9,-0.062741,7.6299,0.054199,0.42525,0.045127,-0.2846
9,-0.046771,7.6754,0.053748,0.47239,0.016667,-0.3843
9,-0.030966,7.7311,0.049736,0.51804,-0.021763,-0.50698
9,-0.017563,7.7963,0.041145,0.5609,-0.072461,-0.65825
9,-0.007211,7.8705,0.027332,0.60016,-0.13829,-0.84127
9,0.0008524,7.9521,0.0090215,0.63539,-0.22241,-1.0505
9,0.0069834,8.0385,-0.011575,0.66583,-0.32746,-1.2723
9,0.011489,8.1274,-0.033741,0.68978,-0.45469,-1.4999
9,0.014677,8.2181,-0.058646,0.70508,-0.60469,-1.7306
9,0.016775,8.311,-0.086962,0.70964,-0.77774,-1.9585
9,0.018089,8.4055,-0.11853,0.70128,-0.9736,-2.1785
9,0.0164,8.4997,-0.15194,0.6794,-1.1915,-2.3848
9,0.0080521,8.5909,-0.18494,0.64539,-1.4299,-2.5725
9,-0.0090803,8.6763,-0.21562,0.60082,-1.6872,-2.7424
9,-0.03635,8.7542,-0.24327,0.54674,-1.9614,-2.8932
9,-0.072334,8.8244,-0.26779,0.48391,-2.2507,-3.0144
9,-0.11293,8.8867,-0.28916,0.41381,-2.5522,-3.0965
9,-0.15605,8.9403,-0.30783,0.33832,-2.8618,-3.1374
9,-0.20183,8.9837,-0.32433,0.2584,-3.1756,-3.1413
9,-0.24994,9.0153,-0.33905,0.17448,-3.4897,-3.1182
9,-0.2998,9.0325,-0.35241,0.087487,-3.8015,-3.0767
9,-0.35065,9.0342,-0.36229,-0.00058058,-4.1092,-3.0051
9,-0.40085,9.0219,-0.36512,-0.086691,-4.4097,-2.8815
9,-0.44881,8.998,-0.35883,-0.16777,-4.6978,-2.6927
9,-0.49374,8.964,-0.34214,-0.24201,-4.9671,-2.4306
9,-0.53474,8.9199,-0.31652,-0.30923,-5.2102,-2.106
9,-0.57135,8.8661,-0.28608,-0.37002,-5.4208,-1.7463
9,-0.60417,8.804,-0.25301,-0.42457,-5.5954,-1.3684
9,-0.63399,8.7349,-0.21735,-0.47265,-5.7322,-0.98214
9,-0.66132,8.66,-0.1795,-0.5135,-5.8305,-0.59928
9,-0.68673,8.5804,-0.13989,-0.54559,-5.8904,-0.22635
9,-0.70818,8.4985,-0.099044,-0.56792,-5.913,0.13045
9,-0.72219,8.4175,-0.058449,-0.58153,-5.9,0.46282
9,-0.72675,8.3407,-0.019726,-0.58891,-5.8537,0.7653
9,-0.72064,8.2702,0.01631,-0.59168,-5.7772,1.0352
9,-0.70538,8.2059,0.048786,-0.58764,-5.6736,1.2673
9,-0.6851,8.1467,0.077838,-0.57349,-5.5469,1.4635
9,-0.66207,8.0912,0.10748,-0.54788,-5.4006,1.6539
9,-0.63654,8.0384,0.14232,-0.50936,-5.2352,1.8744
9,-0.60894,7.9882,0.18436,-0.45966,-5.0477,2.1421
9,-0.57958,7.9413,0.23266,-0.40469,-4.8335,2.4497
9,-0.54874,7.8984,0.2826,-0.35119,-4.5886,2.763
9,-0.51775,7.8588,0.32758,-0.30582,-4.3123,3.0349
9,-0.48826,7.8201,0.36333,-0.27372,-4.0088,3.236
9,-0.46113,7.7806,0.3895,-0.25805,-3.6852,3.3652
9,-0.43716,7.7446,0.40757,-0.25791,-3.3487,3.4349
9,-0.41567,7.7191,0.42022,-0.26951,-3.0052,3.4647
9,-0.38921,7.7082,0.42908,-0.29025,-2.6587,3.4676
9,-0.34934,7.7162,0.43454,-0.31977,-2.3119,3.4528
9,-0.2926,7.7407,0.43716,-0.359,-1.9667,3.4334
9,-0.22141,7.771,0.43766,-0.40882,-1.6233,3.4208
9,-0.14297,7.7961,0.43644,-0.47064,-1.2812,3.4231
9,-0.067037,7.8058,0.43437,-0.54267,-0.93893,3.4507
9,-8.54E-05,7.7933,0.43238,-0.619,-0.59387,3.5086
9,0.058355,7.7541,0.4307,-0.69459,-0.243,3.594
9,0.10977,7.6901,0.42974,-0.77072,0.1164,3.705
9,0.15534,7.6077,0.42876,-0.85199,0.4869,3.8321
9,0.19609,7.5107,0.42076,-0.94217,0.87011,3.9135
10,-0.34565,6.9067,0.088957,0.14226,-0.2987,0.35419
10,-0.33394,6.917,0.088784,0.14731,-0.26328,0.48149
10,-0.31571,6.941,0.095141,0.1583,-0.21513,0.50244
10,-0.30018,6.9636,0.099459,0.16774,-0.16489,0.5259
10,-0.28763,6.9848,0.099756,0.17405,-0.1123,0.52862
10,-0.27723,7.0044,0.096092,0.17732,-0.059437,0.50833
10,-0.26843,7.023,0.090051,0.1785,-0.0086036,0.48359
10,-0.26097,7.0417,0.082323,0.1784,0.039756,0.45318
10,-0.25491,7.0611,0.073393,0.1774,0.085074,0.40554
10,-0.24947,7.0817,0.063514,0.17572,0.12563,0.32809
10,-0.24281,7.1041,0.052982,0.17358,0.15844,0.21239
10,-0.23426,7.1285,0.042731,0.17105,0.17968,0.069226
10,-0.22524,7.1531,0.030092,0.16179,0.1866,-0.11568
10,-0.21765,7.1756,0.020432,0.15418,0.17503,-0.28871
10,-0.21326,7.1946,0.014093,0.14877,0.14616,-0.44433
10,-0.21245,7.2099,0.010277,0.14467,0.10173,-0.5883
10,-0.21421,7.2224,0.00837,0.14034,0.042896,-0.72389
10,-0.21811,7.2327,0.0081351,0.13489,-0.029493,-0.84353
10,-0.22377,7.2412,0.0095071,0.12876,-0.11385,-0.93012
10,-0.23106,7.2481,0.012057,0.12273,-0.20686,-0.97233
10,-0.23969,7.2539,0.014542,0.11652,-0.30409,-0.98015
10,-0.24847,7.2591,0.015794,0.10971,-0.40211,-0.97304
10,-0.25553,7.2645,0.015718,0.10285,-0.49941,-0.96214
10,-0.25932,7.272,0.014602,0.097005,-0.59562,-0.95212
10,-0.25945,7.2823,0.013416,0.093023,-0.69083,-0.93608
10,-0.25667,7.2937,0.013211,0.091177,-0.78444,-0.90912
10,-0.25169,7.3037,0.013996,0.091196,-0.87535,-0.87914
10,-0.2447,7.3115,0.015593,0.092705,-0.96327,-0.84869
10,-0.23589,7.3186,0.017822,0.095508,-1.0481,-0.81304
10,-0.22535,7.3272,0.02068,0.099464,-1.1294,-0.76439
10,-0.21373,7.3372,0.02407,0.10419,-1.2059,-0.69559
10,-0.20267,7.3479,0.027172,0.10887,-1.2754,-0.61189
10,-0.19381,7.3588,0.028651,0.11255,-1.3366,-0.52835
10,-0.18844,7.3696,0.027427,0.11338,-1.3895,-0.45672
10,-0.18643,7.3807,0.023256,0.10942,-1.4351,-0.40183
10,-0.18603,7.3923,0.016672,0.10139,-1.4753,-0.36148
10,-0.18622,7.4048,0.0081131,0.091645,-1.5115,-0.33042
10,-0.18692,7.4181,-0.0024292,0.081903,-1.5445,-0.31033
10,-0.18813,7.4322,-0.014895,0.07179,-1.5755,-0.31026
10,-0.1897,7.4471,-0.029176,0.059548,-1.6066,-0.3375
10,-0.19155,7.4623,-0.044597,0.045116,-1.6403,-0.39261
10,-0.19413,7.4768,-0.059479,0.029703,-1.6796,-0.4648
10,-0.19823,7.4896,-0.072206,0.014312,-1.7261,-0.53707
10,-0.20446,7.4988,-0.081392,-0.00046604,-1.7798,-0.59199
10,-0.21294,7.5012,-0.08732,-0.014989,-1.839,-0.62836
10,-0.22333,7.4965,-0.092085,-0.030148,-1.9018,-0.66184
10,-0.23547,7.487,-0.096528,-0.046336,-1.968,-0.69875
10,-0.24956,7.4753,-0.099992,-0.062905,-2.0379,-0.73091
10,-0.26568,7.4622,-0.10166,-0.078726,-2.111,-0.74588
10,-0.28371,7.4463,-0.10113,-0.09305,-2.1855,-0.7354
10,-0.30292,7.4274,-0.098662,-0.10568,-2.2591,-0.70164
10,-0.32163,7.4073,-0.094453,-0.1165,-2.3292,-0.65005
10,-0.33822,7.3874,-0.088359,-0.12561,-2.3942,-0.58086
10,-0.35123,7.3687,-0.080276,-0.13196,-2.4523,-0.49253
10,-0.36107,7.3507,-0.070313,-0.13274,-2.5016,-0.38506
10,-0.3702,7.332,-0.058721,-0.12658,-2.5401,-0.25824
10,-0.37928,7.3121,-0.045617,-0.11471,-2.5659,-0.11993
10,-0.3869,7.2923,-0.030847,-0.099882,-2.5779,0.019691
10,-0.39145,7.2748,-0.0142,-0.083926,-2.5759,0.15744
10,-0.39196,7.261,0.0036458,-0.066343,-2.5602,0.28596
10,-0.38887,7.2509,0.021416,-0.046974,-2.5316,0.40412
10,-0.38304,7.2438,0.037743,-0.026725,-2.4912,0.51439
10,-0.37495,7.2384,0.051513,-0.0064723,-2.4398,0.60861
10,-0.36501,7.2348,0.062114,0.013329,-2.3789,0.67469
10,-0.35356,7.2357,0.070385,0.033218,-2.3114,0.71567
10,-0.34077,7.2433,0.078233,0.054278,-2.2399,0.74872
10,-0.3267,7.2576,0.085062,0.076747,-2.165,0.77585
10,-0.31125,7.2756,0.088533,0.099054,-2.0874,0.78222
10,-0.29408,7.2944,0.086402,0.11888,-2.0092,0.74604
10,-0.27641,7.3136,0.076868,0.13524,-1.9346,0.64868
10,-0.26009,7.3335,0.060452,0.14947,-1.8697,0.49425
10,-0.24615,7.3538,0.03848,0.16381,-1.8203,0.29682
10,-0.23519,7.3745,0.012295,0.18043,-1.7906,0.069448
10,-0.227,7.3954,-0.016291,0.20022,-1.7837,-0.17386
10,-0.2203,7.4171,-0.046526,0.22157,-1.801,-0.42839
10,-0.21373,7.4406,-0.07918,0.24234,-1.8439,-0.69949
10,-0.20915,7.4656,-0.11529,0.26172,-1.9138,-0.98491
10,-0.20984,7.4904,-0.15583,0.2806,-2.0123,-1.279
10,-0.21865,7.5125,-0.20068,0.30032,-2.1402,-1.5736
10,-0.23823,7.5314,-0.24663,0.32121,-2.2976,-1.8473
10,-0.26797,7.5498,-0.29027,0.3431,-2.4823,-2.0882
10,-0.30608,7.5714,-0.32934,0.36593,-2.6911,-2.2957
10,-0.35036,7.5993,-0.36237,0.38956,-2.9207,-2.4637
10,-0.3976,7.6353,-0.38901,0.41391,-3.1671,-2.585
10,-0.44661,7.6788,-0.41018,0.43842,-3.4256,-2.6652
10,-0.49913,7.728,-0.42658,0.46189,-3.6921,-2.7109
10,-0.55729,7.781,-0.43671,0.48372,-3.9632,-2.7159
10,-0.62292,7.8367,-0.43882,0.50516,-4.2348,-2.6703
10,-0.69544,7.895,-0.43137,0.52828,-4.5018,-2.5612
10,-0.76968,7.956,-0.4127,0.55356,-4.7579,-2.3758
10,-0.84063,8.0197,-0.38363,0.57822,-4.9955,-2.1224
10,-0.90483,8.0857,-0.34586,0.59875,-5.2077,-1.8164
10,-0.95992,8.1536,-0.30165,0.61228,-5.3894,-1.4757
10,-1.005,8.2232,-0.25427,0.61713,-5.5369,-1.1237
10,-1.0407,8.294,-0.20494,0.61398,-5.6493,-0.76694
10,-1.0669,8.3643,-0.15197,0.60468,-5.726,-0.39555
10,-1.0826,8.4331,-0.093326,0.59113,-5.7656,-0.0066025
10,-1.0875,8.5008,-0.027072,0.57461,-5.7662,0.40241
10,-1.0814,8.5691,0.04673,0.55602,-5.726,0.82508
10,-1.0636,8.6386,0.12415,0.53622,-5.6435,1.2432
10,-1.0352,8.7063,0.20162,0.51612,-5.5191,1.6499
10,-0.9978,8.7689,0.27619,0.49636,-5.3542,2.041
10,-0.95366,8.8238,0.34512,0.4771,-5.1501,2.4041
10,-0.90614,8.8696,0.40691,0.45799,-4.9096,2.7253
10,-0.8565,8.9068,0.46137,0.43915,-4.6371,3.0025
10,-0.80306,8.9374,0.50798,0.4219,-4.3369,3.2323
10,-0.74394,8.9633,0.5462,0.4073,-4.0136,3.4114
10,-0.67706,8.986,0.57662,0.39488,-3.6725,3.5443
10,-0.60198,9.007,0.59945,0.38274,-3.3181,3.629
10,-0.52138,9.0284,0.61403,0.36895,-2.9552,3.6552
10,-0.43739,9.0519,0.62032,0.35331,-2.5896,3.6198
10,-0.35246,9.0784,0.61867,0.33616,-2.2277,3.5221
10,-0.26968,9.1078,0.61029,0.31766,-1.8755,3.3698
10,-0.19119,9.1392,0.59744,0.29751,-1.5385,3.1821
10,-0.11792,9.1723,0.58126,0.27484,-1.2203,2.9686
10,-0.050931,9.2081,0.56128,0.24944,-0.9234,2.7287
10,0.0098294,9.2477,0.53702,0.22156,-0.65053,2.4655
10,0.065767,9.2905,0.50754,0.19129,-0.40398,2.1795
10,0.11751,9.3346,0.47215,0.15795,-0.18603,1.8702
10,0.16443,9.3765,0.43159,0.12001,0.00099753,1.5407
10,0.20542,9.4129,0.38646,0.075612,0.15506,1.192
10,0.23955,9.4412,0.34563,0.056338,0.27426,0.92536
11,0.0321484,7.98952,-0.038097,0.32622,0.26822,-0.38861
11,0.0283592,8.04576,-0.033254,0.34895,0.22935,-0.34671
11,0.0239872,8.10443,-0.026839,0.36446,0.19468,-0.29734
11,0.0191464,8.16173,-0.01961,0.37401,0.16495,-0.2455
11,0.0141019,8.21278,-0.012472,0.38169,0.1404,-0.19684
11,0.00957337,8.2552,-0.0063754,0.39148,0.12072,-0.15759
11,0.00595866,8.29195,-0.0014968,0.40395,0.10496,-0.12853
11,0.00308677,8.32788,0.0025327,0.41582,0.092103,-0.10681
11,0.00081623,8.36605,0.0058924,0.42262,0.081421,-0.090647
11,-0.00137801,8.40591,0.0090864,0.4215,0.072357,-0.07609
11,-0.00273258,8.44527,0.012439,0.41207,0.064748,-0.059183
11,-0.00133925,8.48186,0.015931,0.39495,0.058829,-0.03346
11,0.00419631,8.51489,0.019549,0.37229,0.055483,0.00015336
11,0.0130139,8.54584,0.023254,0.34768,0.055499,0.033077
11,0.0227433,8.57806,0.02693,0.3255,0.058806,0.058726
11,0.0313977,8.61448,0.030248,0.30844,0.064679,0.07382
11,0.0383334,8.65554,0.033032,0.29567,0.072061,0.081604
11,0.0441896,8.69935,0.035382,0.28443,0.080221,0.086082
11,0.0491527,8.74277,0.037372,0.27224,0.08883,0.090662
11,0.0533902,8.78207,0.039399,0.25828,0.097896,0.10177
11,0.0570274,8.81367,0.040682,0.24286,0.10807,0.11745
11,0.0602206,8.83566,0.039821,0.22748,0.11982,0.12776
11,0.063086,8.84901,0.036069,0.21396,0.13259,0.12523
11,0.0656539,8.85708,0.030484,0.20332,0.14512,0.11561
11,0.0679625,8.86377,0.024988,0.19576,0.15668,0.11044
11,0.0700697,8.87207,0.021172,0.19154,0.16772,0.11961
11,0.0720236,8.88328,0.019693,0.19115,0.17968,0.14608
11,0.0738506,8.89673,0.019813,0.19471,0.19429,0.18244
11,0.0755594,8.91052,0.021254,0.20257,0.21253,0.22439
11,0.0774206,8.92247,0.023788,0.21656,0.23497,0.26843
11,0.0786312,8.93098,0.027386,0.23907,0.26182,0.31211
11,0.0783034,8.93682,0.031244,0.27086,0.29303,0.34527
11,0.0763344,8.94282,0.033803,0.30956,0.32755,0.36464
11,0.0739815,8.95248,0.033835,0.35054,0.36402,0.37745
11,0.0727195,8.96958,0.030307,0.38959,0.40176,0.38759
11,0.0737418,8.99755,0.022341,0.42438,0.44052,0.39109
11,0.0777201,9.03785,0.010131,0.45464,0.47963,0.37868
11,0.0838148,9.08876,-0.005406,0.48181,0.5175,0.34417
11,0.0916601,9.14791,-0.023682,0.50797,0.55192,0.28324
11,0.100967,9.21519,-0.044277,0.53517,0.58024,0.19278
11,0.111799,9.2918,-0.066434,0.56473,0.59952,0.072808
11,0.122708,9.37737,-0.089772,0.59637,0.6068,-0.071887
11,0.130693,9.46813,-0.11455,0.6285,0.59961,-0.2371
11,0.133323,9.55817,-0.14156,0.65911,0.5759,-0.4245
11,0.128576,9.64296,-0.17108,0.68609,0.53345,-0.63354
11,0.114752,9.72082,-0.20316,0.70751,0.4701,-0.86326
11,0.0922854,9.79256,-0.23787,0.72209,0.38377,-1.1118
11,0.0630385,9.86034,-0.27462,0.73034,0.27259,-1.3706
11,0.0281954,9.92647,-0.313,0.73357,0.13553,-1.6327
11,-0.0111326,9.99281,-0.35272,0.73184,-0.027739,-1.893
11,-0.0542364,10.0604,-0.39388,0.72466,-0.21704,-2.1496
11,-0.101241,10.1296,-0.43505,0.71333,-0.432,-2.393
11,-0.152774,10.1998,-0.47324,0.70214,-0.6713,-2.6099
11,-0.209135,10.2707,-0.5061,0.69679,-0.9323,-2.7938
11,-0.269448,10.3418,-0.5317,0.70178,-1.2117,-2.9394
11,-0.332572,10.4126,-0.54824,0.71894,-1.5056,-3.039
11,-0.39802,10.482,-0.55616,0.74718,-1.8095,-3.0909
11,-0.465417,10.5494,-0.55748,0.78387,-2.1186,-3.101
11,-0.534348,10.615,-0.55351,0.82654,-2.4287,-3.0735
11,-0.604482,10.6789,-0.54522,0.87351,-2.7361,-3.0123
11,-0.675953,10.7411,-0.53311,0.92358,-3.0373,-2.9191
11,-0.747386,10.804,-0.51757,0.97493,-3.3292,-2.7987
11,-0.815785,10.8724,-0.49863,1.0252,-3.6091,-2.6551
11,-0.878885,10.9518,-0.47529,1.0728,-3.8746,-2.4844
11,-0.934824,11.0465,-0.44678,1.1167,-4.123,-2.2843
11,-0.981733,11.1587,-0.41309,1.1562,-4.3515,-2.055
11,-1.02004,11.2869,-0.37387,1.1919,-4.557,-1.7962
11,-1.05193,11.4281,-0.32961,1.2246,-4.7366,-1.5142
11,-1.07882,11.5795,-0.28167,1.2541,-4.888,-1.2188
11,-1.10157,11.7398,-0.23098,1.2807,-5.0099,-0.91649
11,-1.12045,11.9076,-0.17798,1.3041,-5.1015,-0.61059
11,-1.13637,12.0794,-0.12367,1.3232,-5.1626,-0.30715
11,-1.15004,12.2503,-0.069794,1.3347,-5.1933,-0.015624
11,-1.15971,12.4163,-0.017582,1.3349,-5.1949,0.25969
11,-1.16301,12.5751,0.031943,1.3209,-5.1689,0.51839
11,-1.15875,12.725,0.077599,1.2912,-5.117,0.75893
11,-1.14576,12.8659,0.11956,1.2465,-5.0412,0.98427
11,-1.12463,12.9986,0.15916,1.1885,-4.9427,1.201
11,-1.09768,13.1233,0.19739,1.1186,-4.8226,1.4135
11,-1.06644,13.2402,0.23474,1.037,-4.6813,1.6234
11,-1.03191,13.3494,0.27102,0.94449,-4.5189,1.8293
11,-0.99473,13.4505,0.30657,0.84367,-4.336,2.0334
11,-0.955373,13.5417,0.34163,0.73833,-4.1327,2.238
11,-0.914049,13.6215,0.3743,0.63144,-3.9089,2.4305
11,-0.870938,13.6884,0.40203,0.5246,-3.6658,2.5937
11,-0.826535,13.7411,0.42337,0.41865,-3.4064,2.7158
11,-0.780917,13.7798,0.43689,0.31396,-3.1349,2.7882
11,-0.73361,13.8051,0.4428,0.21068,-2.856,2.8159
11,-0.684037,13.8167,0.44281,0.10891,-2.5745,2.8103
11,-0.632089,13.8138,0.43814,0.0087217,-2.2934,2.7787
11,-0.578413,13.7966,0.42978,-0.089544,-2.0156,2.727
11,-0.523229,13.7668,0.41839,-0.18501,-1.7429,2.6593
11,-0.466771,13.727,0.40422,-0.27636,-1.4769,2.5793
11,-0.411114,13.6792,0.38736,-0.36273,-1.219,2.4885
11,-0.358951,13.6243,0.36823,-0.44344,-0.97016,2.3839
11,-0.312007,13.5623,0.3476,-0.51748,-0.73176,2.2616
11,-0.271974,13.4938,0.32588,-0.58417,-0.5056,2.1179
11,-0.239041,13.42,0.30278,-0.64257,-0.29381,1.9486
11,-0.212058,13.3411,0.2778,-0.69128,-0.098945,1.7527
11,-0.190171,13.2576,0.25073,-0.72944,0.076324,1.5335
11,-0.172354,13.1703,0.22421,-0.74389,0.22967,1.3284
11,-0.157944,13.0804,0.1962,-0.75006,0.36251,1.1082
12,-0.19343,8.8803,0.093351,-0.03231,0.067125,0.008331
12,-0.18203,8.8874,0.093174,-0.045015,0.067958,0.019058
12,-0.17074,8.8943,0.096492,-0.063754,0.069864,0.023543
12,-0.15983,8.9019,0.10151,-0.085217,0.072218,0.025415
12,-0.14947,8.9075,0.10679,-0.10608,0.074759,0.030233
12,-0.13973,8.9084,0.11136,-0.12393,0.077783,0.04132
12,-0.1306,8.9041,0.11515,-0.13719,0.081915,0.059383
12,-0.12211,8.8956,0.11863,-0.14538,0.087853,0.081785
12,-0.1142,8.8838,0.12165,-0.14919,0.096031,0.10509
12,-0.10687,8.8682,0.12422,-0.14921,0.10654,0.12788
12,-0.10008,8.848,0.12644,-0.14612,0.11933,0.18261
12,-0.090942,8.8308,0.12901,-0.1516,0.13759,0.222
12,-0.077643,8.8038,0.13139,-0.15561,0.15979,0.26038
12,-0.061468,8.7695,0.13379,-0.15918,0.18583,0.29826
12,-0.043927,8.7318,0.1363,-0.16016,0.21565,0.33642
12,-0.026389,8.6944,0.13905,-0.15611,0.2493,0.37504
12,-0.0091958,8.6608,0.14203,-0.14705,0.2868,0.40957
12,0.0082395,8.6331,0.14493,-0.13508,0.32776,0.43285
12,0.025532,8.6118,0.1473,-0.12221,0.37104,0.43886
12,0.042576,8.5968,0.14882,-0.10911,0.41493,0.42578
12,0.059453,8.5881,0.14933,-0.09532,0.45751,0.39609
12,0.075981,8.5842,0.14758,-0.083903,0.49711,0.34666
12,0.09205,8.5831,0.14297,-0.067877,0.53178,0.28904
12,0.10774,8.5835,0.13621,-0.048875,0.56068,0.22345
12,0.12313,8.5872,0.1277,-0.030232,0.58303,0.14558
12,0.13838,8.5962,0.11777,-0.015159,0.59759,0.051241
12,0.15347,8.61,0.10648,-0.0066306,0.60271,-0.061653
12,0.16775,8.6254,0.093735,-0.0070318,0.59655,-0.1911
12,0.1804,8.6394,0.080157,-0.01659,0.57744,-0.33161
12,0.19077,8.65,0.066094,-0.034297,0.54427,-0.47692
12,0.19858,8.6573,0.051611,-0.058487,0.49658,-0.62144
12,0.20421,8.663,0.036886,-0.087258,0.43444,-0.75945
12,0.20829,8.668,0.022045,-0.11893,0.35849,-0.88838
12,0.21096,8.6718,0.0071087,-0.15273,0.26966,-1.0099
12,0.21148,8.6713,-0.007926,-0.18979,0.16867,-1.1268
12,0.20914,8.6641,-0.023187,-0.23228,0.055987,-1.2399
12,0.20377,8.6475,-0.038517,-0.2807,-0.067999,-1.3409
12,0.19571,8.6191,-0.053186,-0.3331,-0.20209,-1.4163
12,0.18585,8.5786,-0.066388,-0.38697,-0.34372,-1.4551
12,0.17477,8.5282,-0.077421,-0.4397,-0.48923,-1.4539
12,0.16268,8.4711,-0.086002,-0.48965,-0.63463,-1.4178
12,0.14975,8.4097,-0.092496,-0.53713,-0.77641,-1.3535
12,0.13614,8.3452,-0.097427,-0.583,-0.91176,-1.2666
12,0.12196,8.2781,-0.10101,-0.62718,-1.0384,-1.1604
12,0.10727,8.2076,-0.10297,-0.66856,-1.1545,-1.0351
12,0.09201,8.1316,-0.10294,-0.70646,-1.258,-0.88987
12,0.076433,8.0486,-0.10137,-0.73994,-1.347,-0.72883
12,0.061375,7.9592,-0.099467,-0.76661,-1.4198,-0.56088
12,0.047628,7.8654,-0.098455,-0.78448,-1.4759,-0.39585
12,0.035927,7.7706,-0.099297,-0.79316,-1.5155,-0.24874
12,0.026575,7.678,-0.10284,-0.79439,-1.5404,-0.13734
12,0.019221,7.5887,-0.10956,-0.79167,-1.5541,-0.075492
12,0.01344,7.502,-0.11885,-0.78815,-1.5617,-0.062798
12,0.0089466,7.4174,-0.12983,-0.78581,-1.568,-0.088652
12,0.0055455,7.3342,-0.14166,-0.78552,-1.5768,-0.14195
12,0.0032714,7.2512,-0.15373,-0.78567,-1.591,-0.21642
12,0.0010348,7.1676,-0.16618,-0.78336,-1.6127,-0.3145
12,-0.0032241,7.0859,-0.17931,-0.77598,-1.6441,-0.44006
12,-0.011064,7.0096,-0.19342,-0.76242,-1.6881,-0.5951
12,-0.023829,6.9419,-0.20881,-0.74455,-1.7476,-0.77912
12,-0.043009,6.8823,-0.22557,-0.72491,-1.8255,-0.98822
12,-0.069367,6.8263,-0.24349,-0.7046,-1.9244,-1.2178
12,-0.10156,6.7689,-0.26234,-0.68378,-2.0461,-1.464
12,-0.1377,6.7065,-0.28195,-0.66251,-2.1925,-1.7242
12,-0.17604,6.6366,-0.30221,-0.64066,-2.365,-1.9968
12,-0.21546,6.5603,-0.32323,-0.61739,-2.5646,-2.2823
12,-0.25592,6.4819,-0.34399,-0.59225,-2.7929,-2.5711
12,-0.29724,6.4073,-0.3625,-0.56708,-3.05,-2.8464
12,-0.33921,6.3406,-0.37725,-0.54543,-3.3346,-3.0965
12,-0.38169,6.2815,-0.38701,-0.5306,-3.6443,-3.3082
12,-0.42457,6.2282,-0.39033,-0.5231,-3.9751,-3.4632
12,-0.46777,6.1795,-0.38645,-0.51915,-4.3214,-3.547
12,-0.51125,6.1345,-0.37671,-0.51389,-4.6761,-3.5651
12,-0.55495,6.0924,-0.36301,-0.50378,-5.0326,-3.5324
12,-0.59888,6.0529,-0.34709,-0.48614,-5.3858,-3.4632
12,-0.64319,6.0164,-0.33004,-0.45991,-5.7322,-3.3649
12,-0.68695,5.9831,-0.31194,-0.424,-6.0687,-3.2336
12,-0.72822,5.9517,-0.29273,-0.37629,-6.392,-3.0622
12,-0.76556,5.9188,-0.27215,-0.31255,-6.6982,-2.8405
12,-0.79785,5.8807,-0.25003,-0.22639,-6.9823,-2.5613
12,-0.82367,5.8361,-0.22672,-0.11248,-7.2384,-2.2274
12,-0.84226,5.788,-0.2024,0.025724,-7.4612,-1.8544
12,-0.85498,5.7411,-0.17716,0.17756,-7.6466,-1.4643
12,-0.86372,5.6989,-0.15152,0.33262,-7.793,-1.0771
12,-0.87022,5.6643,-0.12603,0.48184,-7.9007,-0.70686
12,-0.87554,5.6405,-0.10086,0.61876,-7.9714,-0.3584
12,-0.8798,5.6339,-0.076375,0.74124,-8.0073,-0.034187
12,-0.88271,5.6547,-0.053496,0.85165,-8.0107,0.26178
12,-0.8835,5.7155,-0.032864,0.95376,-7.9845,0.52876
12,-0.88174,5.8287,-0.015006,1.0509,-7.9316,0.76634
12,-0.878,6.0033,-0.00058829,1.1451,-7.855,0.97112
12,-0.87257,6.231,0.010135,1.2363,-7.7579,1.1411
12,-0.86557,6.4896,0.0179,1.3231,-7.6438,1.2822
12,-0.858,6.7576,0.02362,1.4045,-7.5156,1.4006
12,-0.85093,7.0166,0.028102,1.4794,-7.3755,1.502
12,-0.8449,7.2539,0.031797,1.5458,-7.2253,1.5876
12,-0.83971,7.4656,0.034695,1.5968,-7.0665,1.6498
12,-0.83521,7.655,0.036442,1.6209,-6.9016,1.6741
12,-0.83129,7.8263,0.036893,1.6051,-6.7342,1.6454
12,-0.82786,7.9825,0.036351,1.5378,-6.5696,1.5549
12,-0.82484,8.1264,0.036021,1.4114,-6.4141,1.4081
12,-0.82199,8.2606,0.036624,1.2352,-6.2733,1.2257
12,-0.81918,8.3873,0.038096,1.0324,-6.1508,1.0347
12,-0.81648,8.5079,0.041203,0.82527,-6.0473,0.86301
12,-0.81402,8.6232,0.046787,0.63215,-5.961,0.73263
12,-0.81194,8.7321,0.05504,0.46495,-5.8877,0.65523
12,-0.81041,8.8274,0.065447,0.32684,-5.8222,0.62947
12,-0.80983,8.8964,0.077649,0.21385,-5.7592,0.64923
12,-0.80971,8.9256,0.091344,0.12126,-5.6943,0.7085
12,-0.80904,8.9042,0.10628,0.045619,-5.6235,0.80026
12,-0.80596,8.826,0.12224,-0.016099,-5.5434,0.91719
12,-0.79932,8.7013,0.13887,-0.066854,-5.4517,1.0515
12,-0.78938,8.5544,0.15597,-0.10904,-5.3466,1.1974
12,-0.77559,8.4082,0.17354,-0.14415,-5.2268,1.3521
12,-0.75736,8.2809,0.19165,-0.17307,-5.0916,1.5149
12,-0.73482,8.1838,0.21039,-0.19551,-4.9401,1.6855
12,-0.70881,8.1193,0.22985,-0.20825,-4.7716,1.8657
12,-0.67991,8.0827,0.25013,-0.20571,-4.585,2.0582
12,-0.6486,8.0688,0.27026,-0.18203,-4.3792,2.2593
12,-0.6153,8.0738,0.28892,-0.13299,-4.1533,2.4629
12,-0.58037,8.0942,0.30448,-0.056843,-3.907,2.6602
12,-0.54425,8.1269,0.31589,0.039922,-3.6409,2.8418
12,-0.50723,8.1693,0.32341,0.14408,-3.3568,3.0028
12,-0.4694,8.2196,0.32698,0.24365,-3.0565,3.1364
12,-0.43072,8.2771,0.32648,0.32951,-2.7428,3.2359
12,-0.39117,8.3411,0.32226,0.39652,-2.4193,3.2949
12,-0.35071,8.4109,0.31502,0.44413,-2.0898,3.3099
12,-0.30957,8.485,0.30529,0.47527,-1.7588,3.2798
12,-0.26919,8.5616,0.29347,0.49306,-1.4308,3.2044
12,-0.2312,8.6382,0.27992,0.49936,-1.1103,3.0885
12,-0.197,8.7123,0.26455,0.49465,-0.80149,2.9527
12,-0.16754,8.7812,0.24827,0.48308,-0.50622,2.7998
12,-0.14256,8.8426,0.23128,0.46607,-0.22624,2.6343
12,-0.12164,8.8955,0.21365,0.44454,0.037192,2.459
12,-0.10441,8.9399,0.19539,0.419,0.28309,2.275
12,-0.090307,8.9768,0.17653,0.38981,0.51059,2.0834
13,-0.21687,8.7951,-0.025014,-0.54001,-0.25143,0.65412
13,-0.21662,8.7327,-0.016866,-0.56639,-0.18602,0.59184
13,-0.21649,8.6676,-0.002156,-0.58631,-0.12684,0.56372
13,-0.21649,8.6005,0.0169,-0.59971,-0.070464,0.5608
13,-0.21658,8.5318,0.037639,-0.60409,-0.014384,0.54442
13,-0.21672,8.4618,0.054638,-0.605,0.040057,0.49934
13,-0.21694,8.3906,0.065595,-0.60245,0.089991,0.41434
13,-0.21761,8.3183,0.070711,-0.59433,0.13143,0.30007
13,-0.21779,8.245,0.071712,-0.5786,0.16143,0.17493
13,-0.21554,8.172,0.068979,-0.55495,0.17893,0.04679
13,-0.20942,8.1011,0.062625,-0.52457,0.1836,-0.078101
13,-0.19785,8.035,0.053394,-0.48888,0.17579,-0.19637
13,-0.17949,7.9759,0.041783,-0.44886,0.15616,-0.31059
13,-0.15612,7.9242,0.028222,-0.40533,0.1251,-0.42097
13,-0.13093,7.8785,0.013041,-0.35898,0.083002,-0.53026
13,-0.10707,7.8369,-0.0035117,-0.31028,0.029975,-0.64493
13,-0.088732,7.8001,-0.021141,-0.25955,-0.034517,-0.76498
13,-0.077802,7.7709,-0.039608,-0.20698,-0.11101,-0.88387
13,-0.074485,7.7521,-0.059057,-0.15291,-0.1994,-0.99832
13,-0.079322,7.7443,-0.079484,-0.098605,-0.29923,-1.1071
13,-0.091615,7.7459,-0.10075,-0.046227,-0.40995,-1.2132
13,-0.10983,7.7549,-0.12299,0.001757,-0.53126,-1.3227
13,-0.13292,7.7699,-0.14617,0.043697,-0.66353,-1.438
13,-0.16004,7.7898,-0.16943,0.0798,-0.80734,-1.5548
13,-0.1905,7.8138,-0.19166,0.11126,-0.96281,-1.6659
13,-0.22374,7.8412,-0.2119,0.13838,-1.1294,-1.7649
13,-0.25922,7.8715,-0.22876,0.15987,-1.3059,-1.8435
13,-0.29683,7.9043,-0.24183,0.17361,-1.4902,-1.9029
13,-0.3359,7.9392,-0.25154,0.17841,-1.6805,-1.947
13,-0.3745,7.9748,-0.25805,0.17476,-1.8752,-1.9741
13,-0.41091,8.0087,-0.26184,0.16392,-2.0726,-1.9849
13,-0.44382,8.0385,-0.26344,0.14731,-2.2711,-1.9796
13,-0.47184,8.0633,-0.26324,0.12611,-2.4691,-1.956
13,-0.49498,8.0838,-0.26155,0.10113,-2.6647,-1.9158
13,-0.51425,8.101,-0.25871,0.07291,-2.8563,-1.864
13,-0.53088,8.1137,-0.25491,0.041666,-3.0427,-1.8052
13,-0.54625,8.1198,-0.24989,0.007487,-3.2232,-1.7399
13,-0.56147,8.1181,-0.24288,-0.029416,-3.3972,-1.6615
13,-0.57756,8.1089,-0.23378,-0.068282,-3.5633,-1.566
13,-0.59543,8.0938,-0.22403,-0.10735,-3.7199,-1.4596
13,-0.61529,8.0738,-0.2155,-0.14422,-3.8659,-1.3537
13,-0.63671,8.0496,-0.20974,-0.17689,-4.0013,-1.2589
13,-0.6594,8.0221,-0.20828,-0.20463,-4.1271,-1.1863
13,-0.68314,7.9921,-0.21123,-0.22831,-4.2458,-1.1381
13,-0.70791,7.9596,-0.21773,-0.2487,-4.3596,-1.1093
13,-0.73356,7.9246,-0.22628,-0.26476,-4.4705,-1.0893
13,-0.759,7.8865,-0.23478,-0.27474,-4.5794,-1.0623
13,-0.78258,7.8455,-0.24171,-0.27809,-4.6857,-1.0176
13,-0.80345,7.8026,-0.24569,-0.27625,-4.7874,-0.94557
13,-0.82257,7.7601,-0.24532,-0.2712,-4.882,-0.83801
13,-0.8419,7.7203,-0.24044,-0.26359,-4.9658,-0.70076
13,-0.8633,7.6847,-0.23199,-0.25332,-5.0359,-0.55356
13,-0.8884,7.654,-0.22061,-0.24051,-5.0912,-0.41383
13,-0.91743,7.6272,-0.20683,-0.22558,-5.1326,-0.29271
13,-0.9497,7.6036,-0.19084,-0.20883,-5.1619,-0.18788
13,-0.98343,7.5842,-0.17308,-0.18997,-5.1807,-0.092037
13,-1.0158,7.5703,-0.15516,-0.16836,-5.1899,-0.0094575
13,-1.0449,7.5619,-0.13879,-0.14335,-5.1908,0.051518
13,-1.0689,7.5564,-0.1245,-0.11483,-5.1857,0.088067
13,-1.0861,7.5514,-0.11154,-0.083504,-5.1768,0.10459
13,-1.0962,7.5466,-0.098341,-0.050647,-5.1664,0.11136
13,-1.1007,7.5429,-0.083868,-0.017477,-5.1553,0.11513
13,-1.1006,7.5411,-0.067428,0.015412,-5.1437,0.12076
13,-1.0968,7.5409,-0.048831,0.048156,-5.1317,0.13172
13,-1.0896,7.542,-0.028545,0.080574,-5.1185,0.1461
13,-1.0797,7.5446,-0.0082082,0.11107,-5.1039,0.15271
13,-1.0693,7.5498,0.01007,0.13731,-5.0886,0.13624
13,-1.0602,7.5588,0.024836,0.15776,-5.075,0.087936
13,-1.0525,7.573,0.035063,0.17257,-5.0662,-0.0031751
13,-1.0456,7.5931,0.040234,0.18294,-5.0665,-0.14969
13,-1.0386,7.619,0.040681,0.18981,-5.0815,-0.34509
13,-1.031,7.6498,0.037353,0.19373,-5.116,-0.56358
13,-1.0233,7.6848,0.030954,0.19508,-5.1723,-0.78132
13,-1.0151,7.7235,0.022034,0.19418,-5.2505,-0.97901
13,-1.0068,7.7647,0.010443,0.19134,-5.3484,-1.1565
13,-0.99985,7.8063,-0.0035687,0.1869,-5.464,-1.3229
13,-0.99567,7.845,-0.017628,0.18117,-5.5963,-1.467
13,-0.99522,7.8774,-0.02962,0.17403,-5.743,-1.5781
13,-0.99882,7.9016,-0.03918,0.16464,-5.9008,-1.6574
13,-1.0056,7.9173,-0.046805,0.15163,-6.0666,-1.7114
13,-1.0148,7.9262,-0.05306,0.13399,-6.2377,-1.7455
13,-1.026,7.9304,-0.05732,0.11185,-6.4123,-1.7641
13,-1.0387,7.9313,-0.058521,0.086184,-6.5887,-1.7711
13,-1.0527,7.9293,-0.055876,0.058057,-6.7658,-1.7688
13,-1.0687,7.9247,-0.049456,0.02849,-6.9427,-1.7568
13,-1.0868,7.9184,-0.039321,-0.0016296,-7.1183,-1.7256
13,-1.1046,7.9121,-0.025316,-0.031193,-7.2909,-1.6616
13,-1.1194,7.9068,-0.0067352,-0.058598,-7.4571,-1.5551
13,-1.1308,7.9023,0.017185,-0.08194,-7.6126,-1.4001
13,-1.1393,7.8963,0.045476,-0.099764,-7.7526,-1.1945
13,-1.1447,7.8869,0.07708,-0.11236,-7.872,-0.94078
13,-1.1457,7.8735,0.11141,-0.12174,-7.9661,-0.64785
13,-1.1403,7.8572,0.14789,-0.13,-8.0309,-0.32531
13,-1.1268,7.8396,0.18617,-0.13809,-8.0634,0.019943
13,-1.1057,7.8217,0.22674,-0.14693,-8.0614,0.38784
13,-1.0785,7.803,0.26987,-0.15773,-8.0226,0.77802
13,-1.0463,7.7826,0.31329,-0.17149,-7.9448,1.1714
13,-1.0087,7.7602,0.35443,-0.18902,-7.8277,1.5486
13,-0.96445,7.7377,0.39224,-0.21045,-7.6728,1.9027
13,-0.91466,7.7178,0.42634,-0.23487,-7.4826,2.2317
13,-0.86064,7.7015,0.45627,-0.2608,-7.2594,2.5313
13,-0.80317,7.6869,0.48067,-0.28739,-7.0063,2.8063
13,-0.74293,7.6713,0.49795,-0.31503,-6.7256,3.0652
13,-0.6804,7.6531,0.50643,-0.34453,-6.4191,3.3075
13,-0.61522,7.6308,0.50669,-0.37607,-6.0884,3.5347
13,-0.5471,7.603,0.50116,-0.40794,-5.7349,3.7448
13,-0.478,7.5691,0.49183,-0.43762,-5.3604,3.9268
13,-0.41054,7.5288,0.47899,-0.46361,-4.9677,4.07
13,-0.34634,7.4814,0.46184,-0.48622,-4.5607,4.1712
13,-0.28658,7.4266,0.44106,-0.50781,-4.1436,4.2292
13,-0.23217,7.3653,0.41744,-0.53014,-3.7207,4.2397
13,-0.18434,7.2987,0.39151,-0.55265,-3.2967,4.1977
13,-0.14439,7.2271,0.36371,-0.57372,-2.8769,4.0995
13,-0.11399,7.1505,0.33392,-0.58313,-2.467,3.9662
13,-0.092327,7.0696,0.30259,-0.5894,-2.0704,3.7845
13,-0.076182,6.9872,0.26961,-0.59125,-1.6919,3.5639
13,-0.062655,6.9073,0.23598,-0.58894,-1.3355,3.3192
13,-0.050714,6.833,0.20304,-0.58333,-1.0036,3.0633
13,-0.04077,6.7653,0.17163,-0.5745,-0.69729,2.8031
13,-0.032543,6.7022,0.14234,-0.56163,-0.41698,2.5445
13,-0.02575,6.6412,0.11564,-0.54401,-0.16253,2.2926
13,-0.020144,6.5816,0.092174,-0.52173,0.066737,2.0459
13,-0.01552,6.5238,0.0722,-0.48594,0.27132,1.8199
13,-0.012572,6.4868,0.059998,-0.47121,0.45331,1.2378
14,0.0027343,6.0608,0.013187,-0.020912,-0.26863,0.62829
14,0.0043943,6.0586,0.014235,-0.02147,-0.2058,0.60998
14,0.0061623,6.0567,0.015282,-0.021925,-0.1448,0.59403
14,0.0080199,6.0552,0.016349,-0.020752,-0.085396,0.58132
14,0.0099251,6.054,0.017274,-0.016951,-0.027264,0.56977
14,0.01187,6.0529,0.017884,-0.011127,0.029713,0.49275
14,0.01386,6.052,0.018191,-0.0048092,0.078988,0.42428
14,0.015902,6.0513,0.018247,0.00042417,0.12142,0.36708
14,0.017985,6.0507,0.018089,0.0045232,0.15812,0.31921
14,0.020104,6.0502,0.017762,0.0079142,0.19005,0.27883
14,0.022239,6.0498,0.017313,0.01072,0.21793,0.24477
14,0.02436,6.0492,0.016758,0.01304,0.24241,0.21556
14,0.026483,6.0487,0.016094,0.014947,0.26396,0.19043
14,0.028634,6.0498,0.015348,0.016518,0.283,0.16971
14,0.030651,6.0536,0.014559,0.017824,0.29998,0.15101
14,0.032372,6.0597,0.013729,0.018766,0.31508,0.13203
14,0.033796,6.0662,0.012891,0.019315,0.32828,0.11393
14,0.03496,6.0716,0.011967,0.020046,0.33967,0.096075
14,0.035911,6.0758,0.010585,0.022401,0.34928,0.074445
14,0.036697,6.0793,0.0083287,0.027857,0.35672,0.045056
14,0.03736,6.0822,0.0049092,0.037642,0.36123,0.0051001
14,0.037909,6.0846,4.69E-05,0.052627,0.36174,-0.048038
14,0.03835,6.0866,-0.0062526,0.072302,0.35694,-0.11412
14,0.038715,6.0883,-0.013715,0.094988,0.34552,-0.19084
14,0.039043,6.0896,-0.02204,0.11936,0.32644,-0.27509
14,0.039328,6.0904,-0.030987,0.14536,0.29893,-0.3641
14,0.039642,6.0907,-0.040448,0.17369,0.26252,-0.45647
14,0.039836,6.0914,-0.050361,0.20468,0.21687,-0.55123
14,0.039155,6.0955,-0.060668,0.23774,0.16175,-0.64768
14,0.036761,6.1059,-0.071321,0.27212,0.096983,-0.74554
14,0.032057,6.125,-0.082265,0.30755,0.022429,-0.84421
14,0.024453,6.1544,-0.093445,0.3439,-0.061992,-0.9428
14,0.013978,6.1933,-0.10481,0.38102,-0.15627,-1.0411
14,0.001205,6.2398,-0.11633,0.41875,-0.26038,-1.1392
14,-0.013429,6.2923,-0.12802,0.45699,-0.37431,-1.235
14,-0.029602,6.3504,-0.13982,0.49598,-0.4978,-1.326
14,-0.047101,6.4136,-0.15178,0.53586,-0.6304,-1.4135
14,-0.065763,6.4809,-0.16379,0.5755,-0.77176,-1.4973
14,-0.085426,6.5513,-0.17499,0.61155,-0.92149,-1.5708
14,-0.10594,6.6236,-0.18417,0.64018,-1.0786,-1.6253
14,-0.12717,6.6973,-0.19029,0.65821,-1.2411,-1.6537
14,-0.14898,6.7725,-0.19227,0.66406,-1.4065,-1.6488
14,-0.17126,6.8487,-0.18991,0.65876,-1.5714,-1.6102
14,-0.19395,6.9258,-0.18405,0.64414,-1.7324,-1.545
14,-0.21699,7.0036,-0.17539,0.6212,-1.8869,-1.4599
14,-0.2403,7.0824,-0.16426,0.58989,-2.0329,-1.3581
14,-0.26392,7.1624,-0.15148,0.55081,-2.1687,-1.2458
14,-0.28775,7.2424,-0.13827,0.50651,-2.2933,-1.1295
14,-0.31083,7.3186,-0.12545,0.4604,-2.4062,-1.0123
14,-0.33157,7.3862,-0.11366,0.41524,-2.5074,-0.89619
14,-0.34852,7.4415,-0.1035,0.37293,-2.5971,-0.78337
14,-0.36009,7.4826,-0.09482,0.33471,-2.6754,-0.67372
14,-0.36585,7.5108,-0.087175,0.30083,-2.7428,-0.56593
14,-0.3669,7.5281,-0.080409,0.27057,-2.7994,-0.46083
14,-0.3642,7.5347,-0.074358,0.24312,-2.8454,-0.35939
14,-0.35811,7.5302,-0.068918,0.21776,-2.8814,-0.2621
14,-0.35005,7.5152,-0.063944,0.19382,-2.9076,-0.16842
14,-0.3423,7.494,-0.059328,0.17153,-2.9244,-0.077948
14,-0.33632,7.4721,-0.055537,0.15296,-2.9322,0.0059772
14,-0.33326,7.454,-0.05365,0.14102,-2.9316,0.076043
14,-0.33416,7.4432,-0.054748,0.13823,-2.924,0.12552
14,-0.33862,7.4419,-0.060059,0.14549,-2.9115,0.14622
14,-0.34561,7.4503,-0.070014,0.16183,-2.8968,0.13562
14,-0.35476,7.4669,-0.083784,0.18623,-2.8833,0.10026
14,-0.36571,7.4898,-0.10058,0.21874,-2.8733,0.045771
14,-0.37814,7.5179,-0.12018,0.25999,-2.8687,-0.027764
14,-0.39181,7.55,-0.14124,0.30934,-2.8715,-0.11341
14,-0.40641,7.5854,-0.16151,0.36303,-2.8828,-0.20038
14,-0.42191,7.6245,-0.17962,0.41607,-2.9028,-0.28365
14,-0.43887,7.6683,-0.19447,0.46445,-2.9312,-0.3601
14,-0.45802,7.7179,-0.20507,0.50501,-2.9672,-0.42717
14,-0.48021,7.7735,-0.21188,0.53549,-3.0099,-0.48755
14,-0.50588,7.8345,-0.21596,0.55573,-3.0587,-0.5454
14,-0.53447,7.9005,-0.21771,0.56747,-3.1132,-0.60009
14,-0.56537,7.9722,-0.21753,0.57253,-3.1732,-0.65176
14,-0.59848,8.0501,-0.21577,0.57217,-3.2384,-0.70139
14,-0.63253,8.1339,-0.21276,0.56737,-3.3085,-0.75027
14,-0.66533,8.22,-0.20868,0.5589,-3.3836,-0.79802
14,-0.69556,8.3042,-0.20296,0.54713,-3.4634,-0.83963
14,-0.7222,8.383,-0.19461,0.5322,-3.5473,-0.86741
14,-0.7443,8.4532,-0.18273,0.51418,-3.6341,-0.8746
14,-0.76237,8.5128,-0.16645,0.49327,-3.7215,-0.85466
14,-0.77753,8.5618,-0.14572,0.46983,-3.807,-0.80741
14,-0.79018,8.6018,-0.12132,0.4441,-3.8877,-0.73836
14,-0.80078,8.6349,-0.093978,0.41596,-3.9616,-0.65014
14,-0.80967,8.6622,-0.064057,0.3847,-4.0266,-0.54113
14,-0.81733,8.6848,-0.032493,0.34921,-4.0807,-0.41412
14,-0.82376,8.7032,-0.00051723,0.30957,-4.1221,-0.27532
14,-0.82782,8.7188,0.031115,0.26677,-4.1497,-0.12961
14,-0.8281,8.7327,0.061692,0.22221,-4.1626,0.018997
14,-0.82349,8.7463,0.090607,0.17824,-4.1607,0.16866
14,-0.81312,8.7601,0.11804,0.13669,-4.1439,0.32077
14,-0.79731,8.7742,0.14445,0.097474,-4.1118,0.47662
14,-0.77712,8.7887,0.16996,0.059296,-4.0641,0.63526
14,-0.75333,8.8041,0.19476,0.021631,-4.0006,0.7968
14,-0.72659,8.8195,0.21896,-0.014806,-3.9209,0.96168
14,-0.69751,8.8323,0.24282,-0.048773,-3.8247,1.1314
14,-0.66636,8.8392,0.26622,-0.079446,-3.7116,1.3047
14,-0.63333,8.8378,0.28786,-0.10705,-3.5811,1.4718
14,-0.59881,8.8274,0.30621,-0.13258,-3.4339,1.6214
14,-0.56309,8.8097,0.32009,-0.15691,-3.2718,1.7447
14,-0.52629,8.7862,0.32856,-0.18046,-3.0973,1.8346
14,-0.48863,8.7567,0.33186,-0.20411,-2.9139,1.892
14,-0.45025,8.7204,0.33092,-0.22991,-2.7247,1.9229
14,-0.41126,8.6782,0.32666,-0.25967,-2.5324,1.9317
14,-0.37176,8.6326,0.31987,-0.29423,-2.3392,1.9211
14,-0.3317,8.5872,0.31103,-0.33114,-2.1471,1.8929
14,-0.29133,8.5444,0.3004,-0.36465,-1.9578,1.8489
14,-0.2521,8.5046,0.28805,-0.38935,-1.7729,1.7911
14,-0.21568,8.4675,0.27411,-0.4024,-1.5938,1.721
14,-0.18331,8.4324,0.25883,-0.40347,-1.4217,1.6402
14,-0.15599,8.3992,0.24239,-0.39427,-1.2577,1.5496
14,-0.13359,8.3659,0.22516,-0.37711,-1.1027,1.4522
14,-0.11528,8.3289,0.20744,-0.3536,-0.95752,1.3502
14,-0.099998,8.2848,0.18888,-0.3302,-0.8225,1.2406
14,-0.086859,8.2311,0.16993,-0.30316,-0.69844,1.1263
14,-0.075462,8.17,0.15058,-0.27571,-0.58581,1.007
14,-0.065573,8.1099,0.13098,-0.25053,-0.48511,0.88347
14,-0.057222,8.0591,0.11186,-0.22875,-0.39676,0.76067
14,-0.050589,8.0226,0.094094,-0.2106,-0.32069,0.64487
14,-0.045418,8.0028,0.078302,-0.19662,-0.2562,0.54061
14,-0.041508,7.9977,0.064983,-0.18759,-0.20214,0.45179
14,-0.038313,8.0025,0.054186,-0.18211,-0.15696,0.37932
14,-0.035368,8.0132,0.045031,-0.1636,-0.11903,0.31742
14,-0.03349,8.0177,0.03936,-0.14897,-0.087291,0.20752
15,-0.0490135,9.68744,0.067113,0.5996,-0.28693,0.3702
15,-0.0431009,9.73791,0.067301,0.56738,-0.24991,0.35843
15,-0.0354456,9.78863,0.066172,0.5185,-0.21407,0.32612
15,-0.0268224,9.84168,0.062817,0.46307,-0.18146,0.28175
15,-0.0185831,9.89574,0.057771,0.40762,-0.15328,0.24071
15,-0.0117011,9.94901,0.051912,0.35713,-0.12921,0.21018
15,-0.00608678,10.0014,0.045598,0.3135,-0.10819,0.1778
15,-0.0013501,10.0516,0.037847,0.27556,-0.090413,0.13238
15,0.00244997,10.0958,0.028993,0.24304,-0.077174,0.078869
15,0.00617278,10.1289,0.020274,0.21631,-0.069288,0.024447
15,0.0106082,10.147,0.012284,0.19455,-0.066843,-0.027406
15,0.0156859,10.145,0.0041995,0.17566,-0.069583,-0.081171
15,0.020334,10.126,-0.004989,0.15761,-0.077701,-0.13618
15,0.0232447,10.1008,-0.015163,0.14018,-0.091318,-0.18694
15,0.0245866,10.0776,-0.026312,0.12489,-0.11001,-0.23524
15,0.0239856,10.0623,-0.038199,0.11275,-0.13354,-0.28095
15,0.0202112,10.0558,-0.050508,0.10337,-0.16163,-0.32338
15,0.0118897,10.055,-0.063271,0.096772,-0.19397,-0.36806
15,-9.04E-06,10.0584,-0.076303,0.094489,-0.23078,-0.41936
15,-0.012893,10.0658,-0.089895,0.098714,-0.27271,-0.47926
15,-0.0244465,10.0765,-0.10441,0.1119,-0.32064,-0.54349
15,-0.0347019,10.0892,-0.11994,0.13735,-0.37499,-0.60312
15,-0.0454235,10.1038,-0.13611,0.17428,-0.4353,-0.65606
15,-0.0571493,10.122,-0.15278,0.21702,-0.5009,-0.70663
15,-0.0712063,10.1455,-0.17103,0.26035,-0.57157,-0.76711
15,-0.0881,10.1745,-0.19046,0.30078,-0.64828,-0.8366
15,-0.107104,10.2081,-0.20913,0.33823,-0.73194,-0.89764
15,-0.127892,10.2452,-0.22522,0.37462,-0.8217,-0.93813
15,-0.150157,10.2848,-0.23939,0.41047,-0.91551,-0.96277
15,-0.173617,10.3264,-0.2539,0.44521,-1.0118,-0.98642
15,-0.198211,10.3708,-0.27089,0.47929,-1.1104,-1.0263
15,-0.22419,10.4197,-0.29048,0.51419,-1.2131,-1.0884
15,-0.251894,10.4746,-0.31095,0.55046,-1.3219,-1.1707
15,-0.282315,10.5348,-0.33184,0.5869,-1.439,-1.2753
15,-0.317472,10.5983,-0.35193,0.62173,-1.5665,-1.3933
15,-0.35694,10.6639,-0.37047,0.6542,-1.7058,-1.517
15,-0.398041,10.7322,-0.38787,0.68464,-1.8575,-1.6459
15,-0.438558,10.8042,-0.40429,0.71362,-2.0221,-1.7767
15,-0.478789,10.8793,-0.4199,0.74147,-2.1998,-1.907
15,-0.520693,10.9562,-0.43495,0.76892,-2.3905,-2.0332
15,-0.56623,11.0351,-0.44926,0.79705,-2.5938,-2.149
15,-0.615655,11.1176,-0.46194,0.82622,-2.8087,-2.2512
15,-0.667322,11.2048,-0.47172,0.85619,-3.0338,-2.3322
15,-0.720832,11.2958,-0.47677,0.88779,-3.267,-2.3844
15,-0.775075,11.389,-0.47513,0.92258,-3.5055,-2.4053
15,-0.829044,11.4829,-0.46685,0.95988,-3.746,-2.3998
15,-0.882852,11.5774,-0.45337,0.99691,-3.986,-2.3783
15,-0.936474,11.6724,-0.43576,1.0311,-4.2238,-2.3486
15,-0.989955,11.7677,-0.41389,1.061,-4.4587,-2.3111
15,-1.04352,11.8642,-0.38666,1.086,-4.6898,-2.256
15,-1.09672,11.9649,-0.35332,1.1061,-4.9154,-2.1675
15,-1.14807,12.0721,-0.31396,1.1219,-5.1321,-2.0351
15,-1.19534,12.187,-0.26959,1.1337,-5.3357,-1.8553
15,-1.23586,12.3104,-0.2206,1.1424,-5.5212,-1.6239
15,-1.26773,12.4435,-0.16768,1.1498,-5.6836,-1.3467
15,-1.29064,12.5837,-0.1119,1.1568,-5.8183,-1.0363
15,-1.30478,12.726,-0.053828,1.1635,-5.9219,-0.70031
15,-1.31009,12.8664,0.0060971,1.1699,-5.9919,-0.34389
15,-1.30656,13.0012,0.067576,1.1763,-6.0263,0.030874
15,-1.29401,13.1282,0.13046,1.1819,-6.0232,0.41286
15,-1.27286,13.2474,0.19421,1.1835,-5.9819,0.78375
15,-1.24358,13.3614,0.25776,1.1777,-5.9036,1.1313
15,-1.2065,13.4721,0.31933,1.1625,-5.7904,1.4374
15,-1.16204,13.5806,0.37661,1.1359,-5.6467,1.6997
15,-1.11043,13.6886,0.42792,1.0968,-5.4767,1.9361
15,-1.05284,13.7965,0.47266,1.048,-5.2831,2.1597
15,-0.990507,13.9043,0.51051,0.99494,-5.0671,2.3724
15,-0.92428,14.0121,0.54109,0.94227,-4.8299,2.5672
15,-0.854803,14.1204,0.56415,0.89384,-4.5732,2.7343
15,-0.782598,14.2281,0.57917,0.85228,-4.2997,2.8642
15,-0.708295,14.3318,0.58647,0.81746,-4.0133,2.9535
15,-0.632559,14.4275,0.58691,0.78675,-3.718,3.001
15,-0.55669,14.5119,0.58149,0.75819,-3.4179,3.0067
15,-0.482646,14.5823,0.5712,0.7304,-3.1172,2.9718
15,-0.411889,14.6371,0.55655,0.70203,-2.82,2.9026
15,-0.345324,14.6797,0.53822,0.67275,-2.5298,2.8114
15,-0.283755,14.7159,0.51665,0.64242,-2.2486,2.707
15,-0.227899,14.751,0.49177,0.61045,-1.9779,2.592
15,-0.178268,14.7889,0.46348,0.57583,-1.7187,2.4647
15,-0.13567,14.8327,0.43124,0.53034,-1.4723,2.3062
15,-0.0999295,14.8823,0.39778,0.48645,-1.2416,2.154
15,-0.0697571,14.9349,0.36349,0.44637,-1.0262,2.015
15,-0.0435196,14.9885,0.32896,0.41186,-0.82472,1.8979
15,-0.0196291,15.0414,0.29514,0.38452,-0.63494,1.7914
15,0.00266183,15.0926,0.26283,0.36519,-0.45579,1.6705
15,0.0236033,15.142,0.23257,0.35249,-0.28875,1.518
15,0.0427834,15.1892,0.20484,0.34366,-0.13695,1.3361
15,0.0592691,15.233,0.18009,0.3365,-0.0033425,1.1454
15,0.0721571,15.2721,0.15527,0.31752,0.11119,1.0001
15,0.0798909,15.2888,0.14103,0.31118,0.2112,0.62731
16,-0.011205,7.3785,0.0036682,0.0020703,-0.13536,0.008275
16,-0.010314,7.3772,0.0036327,0.0018303,-0.13454,0.0086931
16,-0.0095293,7.376,0.0032818,0.0016275,-0.13367,0.0069629
16,-0.0088332,7.375,0.0027293,0.0014234,-0.13297,0.0040341
16,-0.008193,7.3738,0.0020782,0.0011954,-0.13257,0.00067847
16,-0.0076221,7.3728,0.0013769,0.0010356,-0.1325,-0.0029595
16,-0.0070937,7.3728,0.00065692,0.0011803,-0.1328,-0.0067793
16,-0.0067753,7.3742,-6.88E-05,0.001932,-0.13347,-0.010493
16,-0.0068124,7.3767,-0.00078468,0.0034899,-0.13452,-0.013912
16,-0.0070967,7.379,-0.0014667,0.0058029,-0.13591,-0.016978
16,-0.0075366,7.3806,-0.0021396,0.0086528,-0.13761,-0.011237
16,-0.0072088,7.3805,-0.00338,0.013061,-0.13874,-0.019559
16,-0.0072666,7.3805,-0.0045879,0.017887,-0.14069,-0.027198
16,-0.0076567,7.3804,-0.0057686,0.023057,-0.14341,-0.033691
16,-0.0082953,7.3802,-0.0069881,0.028705,-0.14678,-0.038294
16,-0.0091395,7.3801,-0.0082217,0.034553,-0.15061,-0.04419
16,-0.010154,7.3804,-0.0092307,0.039396,-0.15503,-0.056805
16,-0.011322,7.3818,-0.009427,0.042423,-0.16071,-0.07908
16,-0.012617,7.3848,-0.0082282,0.044075,-0.16862,-0.10409
16,-0.013992,7.3896,-0.0055829,0.045674,-0.17903,-0.11967
16,-0.015484,7.3958,-0.0017719,0.048317,-0.19099,-0.12043
16,-0.017074,7.4033,0.002509,0.052435,-0.20304,-0.11036
16,-0.018705,7.4118,0.0076958,0.056988,-0.21407,-0.090349
16,-0.02037,7.4211,0.013652,0.061971,-0.22311,-0.058206
16,-0.022169,7.4312,0.020283,0.067397,-0.22893,-0.0079698
16,-0.024065,7.4419,0.027461,0.072991,-0.22972,0.064508
16,-0.025555,7.4516,0.034721,0.077955,-0.22327,0.15294
16,-0.025629,7.4591,0.041392,0.081113,-0.20798,0.24224
16,-0.023269,7.4648,0.046898,0.081416,-0.18376,0.31868
16,-0.018262,7.4704,0.051051,0.078442,-0.15189,0.37871
16,-0.01108,7.4772,0.054131,0.072468,-0.11402,0.43179
16,-0.0021908,7.4854,0.05641,0.064116,-0.070838,0.48455
16,0.0081249,7.4945,0.058018,0.053983,-0.022383,0.53589
16,0.019646,7.5043,0.059066,0.042467,0.031206,0.58024
16,0.032271,7.515,0.059735,0.029637,0.08923,0.6116
16,0.045782,7.5261,0.060079,0.015916,0.15039,0.63702
16,0.059288,7.5363,0.05977,0.0027691,0.21409,0.67032
16,0.071462,7.544,0.058159,-0.0084756,0.28112,0.71977
16,0.081178,7.5476,0.05453,-0.017739,0.3531,0.77578
16,0.08811,7.5464,0.048711,-0.026112,0.43068,0.81699
16,0.092778,7.5408,0.041093,-0.034777,0.51238,0.83002
16,0.095746,7.5316,0.032054,-0.043886,0.59538,0.81443
16,0.097332,7.5198,0.021825,-0.053219,0.67682,0.78074
16,0.097762,7.506,0.010606,-0.062861,0.7549,0.72418
16,0.097302,7.4905,-0.0014858,-0.072911,0.82732,0.63258
16,0.096092,7.4737,-0.014299,-0.082989,0.89057,0.49815
16,0.093985,7.4571,-0.027419,-0.091865,0.94039,0.33091
16,0.090689,7.4421,-0.040031,-0.09753,0.97348,0.15684
16,0.085791,7.4293,-0.051451,-0.097847,0.98917,-0.00062582
16,0.079159,7.4181,-0.061668,-0.091759,0.9891,-0.1371
16,0.071106,7.4077,-0.071036,-0.079838,0.97539,-0.26928
16,0.061917,7.3976,-0.079851,-0.063685,0.94846,-0.40773
16,0.051775,7.388,-0.088236,-0.044827,0.90769,-0.55058
16,0.040858,7.3786,-0.096259,-0.024028,0.85263,-0.68746
16,0.029299,7.3692,-0.10396,-0.0015563,0.78389,-0.80845
16,0.017184,7.3601,-0.11142,0.02222,0.70304,-0.91715
16,0.0044495,7.3526,-0.11889,0.046673,0.61133,-1.0254
16,-0.0085991,7.349,-0.12663,0.071391,0.50878,-1.1421
16,-0.021723,7.352,-0.1345,0.096505,0.39457,-1.2648
16,-0.035226,7.3629,-0.14217,0.1227,0.26809,-1.3817
16,-0.049293,7.3811,-0.14944,0.15014,0.12992,-1.4832
16,-0.063957,7.4042,-0.15633,0.17771,-0.0184,-1.5688
16,-0.079141,7.4301,-0.16285,0.20477,-0.17528,-1.6436
16,-0.094756,7.458,-0.16888,0.23213,-0.33964,-1.7034
16,-0.11062,7.4874,-0.17458,0.26085,-0.50998,-1.7427
16,-0.12675,7.5182,-0.18009,0.29112,-0.68425,-1.7579
16,-0.1438,7.5505,-0.18494,0.32227,-0.86003,-1.7494
16,-0.16257,7.5849,-0.18893,0.35271,-1.035,-1.7261
16,-0.18321,7.6223,-0.19207,0.37984,-1.2076,-1.6982
16,-0.20519,7.6635,-0.19403,0.40114,-1.3774,-1.666
16,-0.22778,7.708,-0.19478,0.41599,-1.544,-1.6235
16,-0.25074,7.7531,-0.19448,0.42618,-1.7064,-1.5682
16,-0.27393,7.7976,-0.19331,0.43334,-1.8632,-1.5027
16,-0.29691,7.8429,-0.19141,0.43749,-2.0134,-1.4333
16,-0.31986,7.8909,-0.18899,0.43834,-2.1568,-1.3661
16,-0.343,7.9423,-0.18608,0.43589,-2.2934,-1.302
16,-0.36544,7.9971,-0.18217,0.42998,-2.4236,-1.2399
16,-0.38646,8.0544,-0.17673,0.41992,-2.5476,-1.1776
16,-0.40587,8.1116,-0.1698,0.4049,-2.6653,-1.1141
16,-0.42329,8.1652,-0.16196,0.38411,-2.7767,-1.0527
16,-0.43885,8.2131,-0.15374,0.35836,-2.882,-0.99388
16,-0.45291,8.2566,-0.14596,0.33069,-2.9814,-0.93866
16,-0.46576,8.2968,-0.13973,0.30337,-3.0753,-0.8935
16,-0.47758,8.3329,-0.13593,0.27635,-3.1646,-0.86514
16,-0.4886,8.3641,-0.13451,0.24904,-3.2511,-0.85383
16,-0.49891,8.39,-0.13446,0.22115,-3.3365,-0.85451
16,-0.50814,8.4104,-0.135,0.19231,-3.422,-0.8629
16,-0.51603,8.4248,-0.13588,0.16225,-3.5083,-0.87714
16,-0.52281,8.4321,-0.13707,0.13205,-3.596,-0.89641
16,-0.5291,8.4318,-0.13863,0.10445,-3.6856,-0.91985
16,-0.53525,8.4247,-0.14046,0.081509,-3.7776,-0.94526
16,-0.54267,8.4144,-0.14281,0.063166,-3.8721,-0.97292
16,-0.55339,8.4043,-0.14643,0.04982,-3.9694,-1.0057
16,-0.56877,8.3956,-0.15032,0.043189,-4.07,-1.035
16,-0.58888,8.389,-0.15289,0.043909,-4.1735,-1.0494
16,-0.61191,8.3846,-0.15343,0.051066,-4.2784,-1.0443
16,-0.63544,8.3817,-0.15137,0.063614,-4.3829,-1.0113
16,-0.65822,8.3789,-0.14724,0.081345,-4.484,-0.95085
16,-0.68,8.3757,-0.14221,0.10463,-4.5791,-0.87293
16,-0.70055,8.3741,-0.13647,0.13387,-4.6664,-0.78019
16,-0.71976,8.3761,-0.12998,0.16825,-4.7444,-0.67822
16,-0.73853,8.3829,-0.12154,0.20529,-4.8122,-0.56689
16,-0.75862,8.3964,-0.1093,0.24232,-4.8689,-0.43708
16,-0.77822,8.4193,-0.092181,0.27734,-4.9126,-0.28311
16,-0.79437,8.4519,-0.07006,0.30898,-4.9409,-0.10427
16,-0.80577,8.4921,-0.044066,0.33693,-4.9513,0.093457
16,-0.81089,8.5376,-0.016021,0.36215,-4.942,0.29942
16,-0.81051,8.5875,0.013485,0.38617,-4.912,0.51074
16,-0.80724,8.6414,0.044764,0.40974,-4.861,0.72991
16,-0.80203,8.6995,0.07736,0.43227,-4.788,0.95398
16,-0.79521,8.7612,0.11066,0.45273,-4.6926,1.1787
16,-0.78576,8.825,0.14522,0.47001,-4.5747,1.4055
16,-0.77198,8.8889,0.18247,0.48217,-4.4342,1.6404
16,-0.75313,8.9503,0.2205,0.48723,-4.2701,1.8688
16,-0.729,9.0069,0.25598,0.48519,-4.0832,2.0698
16,-0.70005,9.0585,0.28671,0.47777,-3.8763,2.2313
16,-0.66748,9.1061,0.31027,0.46636,-3.6531,2.3378
16,-0.63125,9.1512,0.32674,0.45115,-3.4193,2.3895
16,-0.59048,9.1952,0.33825,0.43178,-3.1804,2.4022
16,-0.54583,9.2386,0.34598,0.40824,-2.9402,2.3839
16,-0.49843,9.2816,0.35053,0.38123,-2.7018,2.3422
16,-0.4481,9.3229,0.35183,0.35193,-2.4676,2.2858
16,-0.39367,9.3608,0.34936,0.32175,-2.239,2.221
16,-0.33721,9.3938,0.34298,0.29219,-2.0169,2.1529
16,-0.28242,9.4223,0.33272,0.26424,-1.8016,2.0793
16,-0.23236,9.4476,0.31887,0.23784,-1.5937,1.9939
16,-0.19034,9.4704,0.3021,0.21222,-1.3943,1.8925
16,-0.15703,9.4898,0.28243,0.18642,-1.205,1.7715
16,-0.13074,9.505,0.25944,0.15988,-1.0279,1.6292
16,-0.11008,9.516,0.23358,0.13245,-0.86495,1.4669
16,-0.094142,9.5236,0.20697,0.10851,-0.71826,1.2992
16,-0.082093,9.5289,0.17716,0.084352,-0.58834,1.1175
16,-0.073257,9.5324,0.14352,0.060824,-0.47659,0.91985
16,-0.067171,9.5346,0.10686,0.038479,-0.38461,0.71177
16,-0.063558,9.5354,0.069011,0.017104,-0.31343,0.50427
16,-0.062306,9.5342,0.032297,-0.0036322,-0.263,0.3109
16,-0.063285,9.5305,-0.00059425,-0.023239,-0.23191,0.14783
16,-0.066397,9.5241,-0.028211,-0.040593,-0.21713,0.024498
16,-0.071605,9.515,-0.050364,-0.054854,-0.21468,-0.057051
17,-0.0260678,6.09253,0.058368,-0.007123,-0.2785,0.34212
17,-0.0204464,6.09073,0.059592,-0.0067087,-0.24428,0.36185
17,-0.0156249,6.08754,0.059697,-0.0066029,-0.2081,0.37531
17,-0.0113729,6.08404,0.057869,-0.0070089,-0.17057,0.37429
17,-0.00759217,6.08115,0.053717,-0.0079041,-0.13314,0.35249
17,-0.00420121,6.07889,0.047926,-0.0090002,-0.097891,0.31444
17,-0.00113273,6.077,0.041807,-0.010019,-0.066447,0.27242
17,0.00166898,6.07544,0.036514,-0.010993,-0.039206,0.23787
17,0.00424999,6.07415,0.032398,-0.012082,-0.015418,0.21432
17,0.00664842,6.07309,0.029198,-0.012265,0.0060135,0.19889
17,0.00889582,6.07223,0.02701,-0.0090544,0.025902,0.19019
17,0.0110183,6.07152,0.025635,-0.00027777,0.044921,0.18793
17,0.0130373,6.07092,0.024603,0.015045,0.063714,0.19701
17,0.0149841,6.07041,0.023559,0.036749,0.083415,0.22266
17,0.0168709,6.06998,0.022306,0.063787,0.10568,0.26749
17,0.0186951,6.06966,0.020849,0.095111,0.13243,0.32562
17,0.0204675,6.06934,0.019274,0.12993,0.16499,0.38604
17,0.0221969,6.06868,0.017604,0.16761,0.2036,0.43783
17,0.0238251,6.06759,0.015853,0.20766,0.24738,0.47731
17,0.02558,6.06812,0.014029,0.24967,0.29511,0.5081
17,0.0279531,6.07442,0.012152,0.29329,0.34592,0.53108
17,0.0308246,6.09018,0.010237,0.33826,0.39903,0.54817
17,0.0335817,6.11763,0.0082849,0.38433,0.45384,0.56057
17,0.0357441,6.15754,0.0062879,0.43138,0.5099,0.56805
17,0.0370197,6.20873,0.0042542,0.47929,0.56671,0.57126
17,0.0374959,6.26911,0.0022032,0.52778,0.62383,0.57073
17,0.037416,6.33687,0.00012474,0.5764,0.6809,0.56687
17,0.036876,6.41066,-0.0020093,0.62474,0.73759,0.55986
17,0.0359555,6.48946,-0.0041498,0.67221,0.79358,0.55026
17,0.034707,6.57243,-0.0065195,0.71666,0.8486,0.53643
17,0.0332003,6.65882,-0.0095986,0.75448,0.90225,0.51695
17,0.0314932,6.74803,-0.013258,0.78261,0.95394,0.48818
17,0.0296072,6.83959,-0.016937,0.79889,1.0028,0.43624
17,0.0275599,6.93318,-0.020184,0.8021,1.0464,0.34819
17,0.0253793,7.02857,-0.022562,0.79304,1.0812,0.22007
17,0.0231015,7.12522,-0.02468,0.77398,1.1032,0.062062
17,0.0207169,7.22213,-0.027366,0.74747,1.1094,-0.10595
17,0.0181783,7.31815,-0.031168,0.71554,1.0988,-0.26537
17,0.0155254,7.41201,-0.036071,0.67934,1.0723,-0.40855
17,0.012541,7.50143,-0.041232,0.6396,1.0314,-0.53691
17,0.00875592,7.58338,-0.047291,0.59737,0.97774,-0.65724
17,0.00430843,7.65541,-0.05543,0.55445,0.91202,-0.78148
17,-0.000292189,7.7154,-0.066481,0.51278,0.83387,-0.91828
17,-0.00462463,7.76173,-0.080676,0.47324,0.74204,-1.0691
17,-0.00810343,7.79481,-0.09708,0.43555,0.63513,-1.2278
17,-0.0118632,7.81708,-0.11447,0.39927,0.51235,-1.3863
17,-0.0173164,7.83181,-0.1319,0.36471,0.37372,-1.5387
17,-0.0254603,7.84173,-0.14913,0.33277,0.21985,-1.6837
17,-0.0361856,7.84814,-0.16628,0.30442,0.051486,-1.8224
17,-0.0477565,7.85163,-0.18332,0.28079,-0.13075,-1.9546
17,-0.0613827,7.85355,-0.19986,0.26308,-0.32621,-2.0784
17,-0.0793677,7.85694,-0.21526,0.25222,-0.53405,-2.1874
17,-0.103354,7.86514,-0.22905,0.24922,-0.75279,-2.2732
17,-0.133793,7.87966,-0.24083,0.25499,-0.98011,-2.3303
17,-0.16878,7.89967,-0.25066,0.26913,-1.2131,-2.3589
17,-0.205831,7.92377,-0.25771,0.28949,-1.449,-2.3613
17,-0.243077,7.95155,-0.26107,0.31319,-1.6852,-2.342
17,-0.280088,7.98369,-0.25994,0.33828,-1.9194,-2.3043
17,-0.317037,8.02086,-0.25467,0.36455,-2.1498,-2.2537
17,-0.354093,8.06301,-0.24727,0.39238,-2.3752,-2.1997
17,-0.390961,8.10953,-0.23676,0.42074,-2.5951,-2.1337
17,-0.426212,8.15984,-0.22101,0.44671,-2.8085,-2.0394
17,-0.458389,8.21384,-0.19853,0.46691,-3.0124,-1.9057
17,-0.486284,8.27172,-0.16899,0.47991,-3.203,-1.7314
17,-0.509414,8.33307,-0.13441,0.48703,-3.3761,-1.529
17,-0.527285,8.39605,-0.097279,0.49122,-3.529,-1.3122
17,-0.539463,8.4582,-0.059588,0.49485,-3.6603,-1.0886
17,-0.545339,8.5183,-0.02184,0.49914,-3.7691,-0.85789
17,-0.545527,8.57724,0.01616,0.50466,-3.8549,-0.61804
17,-0.542301,8.63639,0.054552,0.5112,-3.9167,-0.37008
17,-0.534906,8.69504,0.092999,0.51836,-3.9537,-0.12003
17,-0.521392,8.75035,0.13002,0.52566,-3.9657,0.12156
17,-0.500406,8.79897,0.16413,0.5325,-3.9536,0.35179
17,-0.471779,8.83948,0.1941,0.53803,-3.9184,0.57118
17,-0.437593,8.87373,0.21933,0.54219,-3.8613,0.7806
17,-0.400389,8.90621,0.23982,0.54673,-3.7832,0.97833
17,-0.362253,8.94124,0.25542,0.55454,-3.6854,1.1565
17,-0.323768,8.98198,0.26555,0.56743,-3.5697,1.3075
17,-0.284718,9.03018,0.27049,0.58544,-3.439,1.4322
17,-0.244989,9.0854,0.27133,0.6078,-3.2958,1.5372
17,-0.204963,9.14624,0.26788,0.6344,-3.142,1.6204
17,-0.166164,9.21116,0.25957,0.66618,-2.98,1.6782
17,-0.130119,9.27883,0.24601,0.7044,-2.8122,1.7082
17,-0.098088,9.34778,0.22733,0.74931,-2.6414,1.7119
17,-0.0707608,9.41744,0.20474,0.79891,-2.4702,1.6962
17,-0.0476404,9.48951,0.17965,0.84911,-2.3005,1.6643
17,-0.0286319,9.56727,0.15333,0.89619,-2.1341,1.614
17,-0.0142362,9.65315,0.12619,0.9373,-1.9727,1.5403
17,-0.00455132,9.74812,0.098248,0.97036,-1.8187,1.4413
17,0.000354488,9.85199,0.069847,0.99462,-1.6746,1.3226
17,0.000846057,9.96384,0.041607,1.0101,-1.5423,1.1922
17,-0.0022615,10.0827,0.017852,1.0054,-1.4231,1.0714
17,-0.00838601,10.2078,-0.0051444,0.99983,-1.3159,0.94651
17,-0.0171248,10.3381,-0.026827,0.99472,-1.2213,0.8182
17,-0.0281185,10.4716,-0.047021,0.99112,-1.1395,0.68662
17,-0.0410828,10.6044,-0.066082,0.98842,-1.0708,0.55129
17,-0.0555984,10.7336,-0.083778,0.98397,-1.0157,0.41773
17,-0.0713843,10.8566,-0.09939,0.97488,-0.9739,0.29236
17,-0.0882209,10.9709,-0.11247,0.95876,-0.94466,0.17749
17,-0.105295,11.0746,-0.12242,0.93427,-0.92691,0.076341
17,-0.12175,11.1664,-0.12267,0.87834,-0.91928,0.015798
17,-0.130461,11.222,-0.12749,0.86201,-0.9177,0.11048
17,-0.140407,11.2785,-0.13117,0.84042,-0.90665,0.070299
17,-0.151743,11.3372,-0.13375,0.81319,-0.89962,0.028301
17,-0.164803,11.3997,-0.13523,0.7806,-0.89679,-0.016947
18,-0.174135,13.1391,0.11592,0.064087,-0.22157,0.44508
18,-0.16904,13.1411,0.11279,0.068154,-0.17706,0.47922
18,-0.158991,13.1428,0.11135,0.071315,-0.12914,0.48318
18,-0.144985,13.1425,0.10998,0.071507,-0.080823,0.45791
18,-0.129674,13.1419,0.10764,0.067066,-0.035033,0.40714
18,-0.115079,13.1436,0.10435,0.057862,0.0056817,0.34098
18,-0.101495,13.1501,0.10153,0.044899,0.039779,0.27343
18,-0.088768,13.1615,0.099967,0.032039,0.067123,0.20949
18,-0.0772994,13.1757,0.098823,0.022355,0.088072,0.14469
18,-0.0672349,13.1903,0.097084,0.01648,0.10254,0.074812
18,-0.0582131,13.2032,0.093602,0.013313,0.11002,0.44432
18,-0.0500665,13.2141,0.089906,0.010173,0.15445,0.28133
18,-0.0405105,13.2247,0.081464,0.0062973,0.18259,0.11353
18,-0.0311572,13.2321,0.069277,0.001938,0.19394,-0.056462
18,-0.0234327,13.233,0.055754,-0.0038784,0.18829,-0.22323
18,-0.0176083,13.2259,0.042727,-0.013434,0.16597,-0.38021
18,-0.0116844,13.2109,0.030412,-0.02875,0.12795,-0.52786
18,-0.00419086,13.1936,0.018605,-0.050086,0.075162,-0.66806
18,0.00374573,13.1793,0.0076754,-0.075928,0.0083562,-0.79717
18,0.0103246,13.1704,-0.0021874,-0.10385,-0.071361,-0.9128
18,0.0130689,13.1657,-0.0113,-0.13184,-0.16264,-1.0137
18,0.0107721,13.1615,-0.019746,-0.15913,-0.26401,-1.1357
18,0.00393625,13.1554,-0.027891,-0.1862,-0.37758,-1.224
18,-0.00643079,13.1464,-0.033827,-0.21131,-0.49998,-1.2678
18,-0.018166,13.1341,-0.035941,-0.23159,-0.62675,-1.2598
18,-0.0296247,13.1168,-0.0338,-0.24452,-0.75274,-1.2044
18,-0.0406705,13.0926,-0.029449,-0.24871,-0.87317,-1.1172
18,-0.0515589,13.0613,-0.02475,-0.24879,-0.9849,-1.0095
18,-0.0619485,13.0239,-0.019475,-0.25125,-1.0858,-0.88167
18,-0.0716097,12.9826,-0.012663,-0.26017,-1.174,-0.73158
18,-0.080813,12.9395,-0.0025916,-0.27577,-1.2472,-0.55494
18,-0.0895586,12.8958,0.010189,-0.29465,-1.3027,-0.36127
18,-0.0962934,12.8523,0.023124,-0.31495,-1.3388,-0.16725
18,-0.0988114,12.8094,0.034029,-0.3363,-1.3555,0.016652
18,-0.0953138,12.7698,0.041576,-0.36008,-1.3538,0.18521
18,-0.0852076,12.7369,0.046307,-0.38635,-1.3353,0.33983
18,-0.070582,12.7135,0.049983,-0.41506,-1.3013,0.48835
18,-0.0536917,12.696,0.053991,-0.44632,-1.2525,0.63685
18,-0.0352043,12.6768,0.058235,-0.48045,-1.1888,0.7781
18,-0.0150009,12.6501,0.06249,-0.5178,-1.111,0.90277
18,0.00788583,12.6142,0.066839,-0.55852,-1.0207,1.0038
18,0.0311496,12.5721,0.071187,-0.60241,-0.92036,1.0749
18,0.0501845,12.5255,0.074264,-0.64925,-0.81287,1.1117
18,0.0616276,12.4738,0.074408,-0.69859,-0.70171,1.1086
18,0.064987,12.414,0.070078,-0.75088,-0.59085,1.0601
18,0.0629884,12.3441,0.061211,-0.80696,-0.48484,0.96981
18,0.0592949,12.2625,0.05002,-0.86719,-0.38786,0.8518
18,0.0564237,12.1687,0.03859,-0.92888,-0.30268,0.71961
18,0.0545222,12.063,0.027133,-0.98871,-0.23071,0.57987
18,0.0533703,11.947,0.01453,-1.0453,-0.17273,0.43152
18,0.052865,11.8225,-0.00066156,-1.0992,-0.12958,0.26924
18,0.0528154,11.691,-0.01617,-1.1515,-0.10265,0.10518
18,0.0522347,11.5538,-0.02748,-1.2012,-0.092133,-0.037933
18,0.0500039,11.4123,-0.03169,-1.2465,-0.095926,-0.14531
18,0.0448415,11.268,-0.028671,-1.2852,-0.11046,-0.21576
18,0.0372146,11.1229,-0.021146,-1.3155,-0.13203,-0.26231
18,0.0294572,10.9791,-0.01315,-1.3351,-0.15826,-0.30852
18,0.0234873,10.8382,-0.0077328,-1.3418,-0.18912,-0.36902
18,0.0190619,10.6994,-0.0054166,-1.3351,-0.22602,-0.43389
18,0.0140583,10.5595,-0.0067843,-1.3175,-0.26941,-0.49312
18,0.00656271,10.4158,-0.011239,-1.2929,-0.31872,-0.52969
18,-0.00119128,10.2691,-0.0173,-1.2643,-0.37169,-0.53364
18,-0.00477613,10.1231,-0.023288,-1.2327,-0.42505,-0.50915
18,-0.00175313,9.98078,-0.028045,-1.198,-0.47597,-0.46248
18,0.00764455,9.84356,-0.031236,-1.16,-0.52222,-0.40163
18,0.0206969,9.71299,-0.034205,-1.1193,-0.56238,-0.33989
18,0.0329952,9.5923,-0.039412,-1.077,-0.59637,-0.29373
18,0.040958,9.48512,-0.048287,-1.0341,-0.62574,-0.27226
18,0.043689,9.39284,-0.060479,-0.98976,-0.65297,-0.27411
18,0.0398017,9.31202,-0.074507,-0.94122,-0.68038,-0.29072
18,0.0303866,9.23661,-0.089126,-0.88627,-0.70945,-0.31494
18,0.0182148,9.16239,-0.1056,-0.8252,-0.74094,-0.35407
18,0.00565787,9.08835,-0.12713,-0.76026,-0.77635,-0.42674
18,-0.00608582,9.01617,-0.15427,-0.69325,-0.81902,-0.53539
18,-0.0176305,8.94796,-0.18503,-0.62455,-0.87256,-0.66655
18,-0.0311955,8.8844,-0.21697,-0.55486,-0.93922,-0.80506
18,-0.049367,8.82513,-0.24694,-0.487,-1.0197,-0.92693
18,-0.0730865,8.76998,-0.27317,-0.42492,-1.1124,-1.0259
18,-0.101896,8.7199,-0.29588,-0.37066,-1.215,-1.1216
18,-0.134956,8.67705,-0.31487,-0.32163,-1.3272,-1.2275
18,-0.17169,8.64323,-0.33089,-0.27243,-1.4499,-1.3632
18,-0.212384,8.61869,-0.3452,-0.21894,-1.5862,-1.5327
18,-0.259027,8.60256,-0.35912,-0.15992,-1.7395,-1.7212
18,-0.310302,8.59428,-0.37332,-0.096698,-1.9116,-1.9133
18,-0.36242,8.59445,-0.38754,-0.031152,-2.103,-2.092
18,-0.413249,8.60327,-0.40052,0.035668,-2.3122,-2.2427
18,-0.460879,8.6183,-0.41043,0.10294,-2.5364,-2.3546
18,-0.505376,8.63529,-0.41677,0.16944,-2.7719,-2.4306
18,-0.54807,8.65152,-0.41973,0.23364,-3.0149,-2.4819
18,-0.589931,8.66876,-0.41893,0.29399,-3.2631,-2.5132
18,-0.631393,8.69175,-0.41388,0.3497,-3.5144,-2.522
18,-0.672194,8.72451,-0.40398,0.40091,-3.7666,-2.503
18,-0.712582,8.76851,-0.38752,0.44809,-4.017,-2.445
18,-0.752733,8.82278,-0.36608,0.49107,-4.2615,-2.3581
18,-0.792701,8.88566,-0.34397,0.52866,-4.4973,-2.2707
18,-0.832227,8.95574,-0.32408,0.55955,-4.7243,-2.201
18,-0.87023,9.03102,-0.30838,0.58406,-4.9444,-2.1601
18,-0.906632,9.10887,-0.29547,0.60424,-5.1604,-2.1326
18,-0.941365,9.18718,-0.28193,0.62215,-5.3737,-2.085
18,-0.972824,9.26504,-0.26452,0.63839,-5.5822,-1.9895
18,-0.999454,9.34262,-0.24197,0.65199,-5.7811,-1.8331
18,-1.02034,9.42052,-0.21489,0.66134,-5.9644,-1.6246
18,-1.03408,9.49875,-0.18441,0.66457,-6.1269,-1.3841
18,-1.04245,9.57643,-0.15193,0.65987,-6.2653,-1.132
18,-1.05036,9.65178,-0.11752,0.64593,-6.3785,-0.87831
18,-1.06141,9.72237,-0.081211,0.62244,-6.4663,-0.62745
18,-1.07765,9.78641,-0.043973,0.59046,-6.5291,-0.383
18,-1.09632,9.84377,-0.0063157,0.5521,-6.5674,-0.14063
18,-1.11193,9.89583,0.031563,0.5094,-6.5815,0.10731
18,-1.11896,9.94554,0.06867,0.46365,-6.5707,0.35983
18,-1.11532,9.99574,0.10409,0.41532,-6.5347,0.61076
18,-1.10197,10.0472,0.13721,0.36444,-6.4737,0.85465
18,-1.0814,10.0977,0.1672,0.31144,-6.3882,1.0859
18,-1.0566,10.1425,0.195,0.25756,-6.2796,1.3102
18,-1.02774,10.1775,0.22348,0.20472,-6.1486,1.5457
18,-0.994649,10.2006,0.25495,0.15516,-5.994,1.8057
18,-0.958176,10.2119,0.29096,0.11061,-5.8134,2.0916
18,-0.919263,10.2131,0.32947,0.071725,-5.6043,2.3821
18,-0.87824,10.206,0.36609,0.037915,-5.3661,2.642
18,-0.835484,10.1923,0.39662,0.0066743,-5.1019,2.8415
18,-0.791282,10.1733,0.41868,-0.025343,-4.8177,2.969
18,-0.745922,10.1494,0.43177,-0.059892,-4.5208,3.0257
18,-0.699685,10.1216,0.43738,-0.095692,-4.2183,3.0245
18,-0.652444,10.0915,0.43805,-0.12896,-3.9158,2.9841
18,-0.603399,10.0612,0.43451,-0.15614,-3.6174,2.912
18,-0.551507,10.0327,0.42712,-0.17569,-3.3262,2.8119
18,-0.495732,10.0076,0.4166,-0.18781,-3.045,2.6904
18,-0.437376,9.98722,0.40366,-0.19365,-2.776,2.5564
18,-0.379743,9.97166,0.38868,-0.19447,-2.5203,2.4163
18,-0.325733,9.95888,0.37201,-0.19119,-2.2787,2.2749
18,-0.277972,9.94505,0.35281,-0.18433,-2.0512,2.1162
18,-0.238435,9.92741,0.3327,-0.17483,-1.8396,1.9497
18,-0.206635,9.90627,0.31189,-0.16315,-1.6446,1.7763
18,-0.180499,9.8846,0.29037,-0.15023,-1.467,1.5956
18,-0.158719,9.86525,0.26779,-0.13708,-1.3074,1.4046
18,-0.140412,9.84924,0.24366,-0.12433,-1.167,1.2005
18,-0.124977,9.83631,0.21747,-0.1124,-1.0469,0.98357
18,-0.111945,9.82577,0.18981,-0.10186,-0.94855,0.76316
18,-0.100888,9.81704,0.16232,-0.093297,-0.87224,0.55654
18,-0.0914643,9.80996,0.13531,-0.086909,-0.81659,0.38417
18,-0.085659,9.80459,0.1173,-0.084203,-0.77817,0.25673
18,-0.080516,9.79975,0.10185,-0.079079,-0.7525,0.16755
18,-0.0758974,9.79532,0.089136,-0.071297,-0.73574,0.09993
18,-0.0716945,9.79107,0.078372,-0.062208,-0.72575,0.049699
18,-0.067825,9.78705,0.069077,-0.053456,-0.72078,0.015186
18,-0.0641947,9.78404,0.060934,-0.04584,-0.71926,-0.0036405
19,0.024634,5.0143,-0.038924,-0.44071,0.29748,-0.35829
19,0.020221,4.9642,-0.036959,-0.43181,0.26165,-0.34327
19,0.015794,4.9144,-0.03509,-0.42006,0.22732,-0.3294
19,0.011354,4.8646,-0.033181,-0.40521,0.19438,-0.31604
19,0.0069188,4.815,-0.03126,-0.38672,0.16278,-0.30415
19,0.0023806,4.7659,-0.029335,-0.36514,0.13236,-0.29303
19,-0.0020581,4.719,-0.027388,-0.34189,0.10306,-0.281
19,-0.0057696,4.6767,-0.025415,-0.31817,0.074959,-0.26714
19,-0.0082873,4.6417,-0.023433,-0.2945,0.048246,-0.25164
19,-0.0095014,4.6153,-0.021439,-0.27083,0.023081,-0.23526
19,-0.0099398,4.5959,-0.01944,-0.24705,-0.00044537,-0.21767
19,-0.010342,4.5809,-0.017438,-0.22308,-0.022213,-0.19612
19,-0.010846,4.5684,-0.015255,-0.19914,-0.041825,-0.16619
19,-0.011315,4.5578,-0.013357,-0.17562,-0.058444,-0.13473
19,-0.011769,4.5489,-0.012893,-0.15208,-0.071917,-0.11975
19,-0.012224,4.5416,-0.014351,-0.12701,-0.083892,-0.13016
19,-0.012653,4.5356,-0.018032,-0.099256,-0.096908,-0.16941
19,-0.01306,4.5306,-0.024565,-0.068226,-0.11385,-0.24409
19,-0.013463,4.5264,-0.033681,-0.033685,-0.13826,-0.34914
19,-0.013849,4.523,-0.044731,0.0042552,-0.17317,-0.47436
19,-0.014247,4.5202,-0.057293,0.045335,-0.22061,-0.61322
19,-0.014656,4.518,-0.070819,0.089468,-0.28193,-0.75795
19,-0.014717,4.5161,-0.085068,0.13703,-0.35773,-0.90458
19,-0.01536,4.5134,-0.099969,0.18845,-0.44818,-1.0512
19,-0.018867,4.5109,-0.11542,0.24379,-0.55331,-1.1958
19,-0.026322,4.5118,-0.13132,0.30235,-0.67289,-1.337
19,-0.038122,4.5205,-0.14759,0.36277,-0.80659,-1.4742
19,-0.0549,4.5403,-0.16417,0.42378,-0.95401,-1.6078
19,-0.07565,4.5743,-0.18101,0.48484,-1.1148,-1.7375
19,-0.098962,4.6238,-0.19805,0.54595,-1.2885,-1.8621
19,-0.12453,4.6866,-0.21526,0.60719,-1.4747,-1.9823
19,-0.15198,4.7598,-0.2326,0.66842,-1.673,-2.1043
19,-0.18098,4.8424,-0.25038,0.73002,-1.8834,-2.2367
19,-0.21125,4.9347,-0.26766,0.79275,-2.1071,-2.3674
19,-0.24261,5.0365,-0.28217,0.85559,-2.3438,-2.4654
19,-0.27486,5.1463,-0.29279,0.91487,-2.5903,-2.5153
19,-0.30783,5.2611,-0.29911,0.9664,-2.8419,-2.5161
19,-0.34141,5.3781,-0.30045,1.0067,-3.0935,-2.4661
19,-0.37548,5.4961,-0.29782,1.0328,-3.3401,-2.3793
19,-0.40996,5.6149,-0.2926,1.0438,-3.578,-2.2734
19,-0.44477,5.7346,-0.2851,1.0416,-3.8054,-2.1533
19,-0.47985,5.8549,-0.27569,1.0291,-4.0207,-2.0235
19,-0.51547,5.9761,-0.26472,1.0075,-4.223,-1.8886
19,-0.55069,6.0989,-0.25236,0.97757,-4.4119,-1.7501
19,-0.5832,6.222,-0.23917,0.94065,-4.5869,-1.6119
19,-0.61191,6.3416,-0.2261,0.89957,-4.7481,-1.4815
19,-0.63633,6.4533,-0.21371,0.85782,-4.8963,-1.3612
19,-0.6558,6.5536,-0.20246,0.81749,-5.0324,-1.2523
19,-0.67129,6.6399,-0.19219,0.77801,-5.1576,-1.1569
19,-0.68415,6.7113,-0.18209,0.73809,-5.2733,-1.0726
19,-0.69472,6.7697,-0.171,0.69803,-5.3806,-0.98656
19,-0.70337,6.8179,-0.15785,0.65966,-5.4792,-0.8819
19,-0.71043,6.8575,-0.14194,0.62445,-5.5674,-0.74921
19,-0.71598,6.8898,-0.12326,0.59331,-5.6423,-0.59149
19,-0.72095,6.9178,-0.10325,0.56776,-5.7015,-0.4244
19,-0.72706,6.9455,-0.08308,0.54963,-5.7439,-0.25967
19,-0.73525,6.9768,-0.06336,0.54032,-5.7699,-0.10028
19,-0.74633,7.0131,-0.044709,0.54062,-5.7799,0.051593
19,-0.75986,7.0521,-0.026892,0.5511,-5.7748,0.19767
19,-0.77414,7.0911,-0.0094665,0.57159,-5.755,0.3412
19,-0.78677,7.1306,0.007568,0.60053,-5.7209,0.48249
19,-0.79555,7.1742,0.024286,0.63623,-5.6726,0.62175
19,-0.79935,7.225,0.040736,0.67777,-5.6104,0.75978
19,-0.79722,7.2855,0.056759,0.72429,-5.5345,0.8932
19,-0.7897,7.3575,0.073108,0.77318,-5.4451,1.0247
