veh_id,target_vel_x,target_vel_y,target_acc_x,target_acc_y,ref_heading,yaw_rate
1,-0.0061924,7.115,0.0019227,0.10544,-0.17343,0.06473
1,-0.005897,7.1245,0.0019876,0.11793,-0.16696,0.076928
1,-0.0056524,7.1342,0.0021573,0.12805,-0.15926,0.085674
1,-0.0054263,7.1468,0.0022778,0.13493,-0.1507,0.088813
1,-0.0052178,7.1625,0.0023351,0.13987,-0.14181,0.088746
1,-0.0050258,7.1785,0.0023493,0.14388,-0.13294,0.086805
1,-0.004849,7.1919,0.002359,0.14677,-0.12426,0.083546
1,-0.0046862,7.2011,0.0024194,0.14789,-0.1159,0.079316
1,-0.0045361,7.2074,0.0025211,0.14758,-0.10797,0.074927
1,-0.0043976,7.2132,0.0026635,0.14728,-0.10048,0.070766
1,-0.0042697,7.2205,0.0028387,0.14789,-0.093404,0.15085
1,-0.0040061,7.2448,0.0030316,0.15151,-0.078319,0.14195
1,-0.0036037,7.2687,0.0032766,0.15373,-0.064124,0.13415
1,-0.0032313,7.2904,0.0035464,0.1515,-0.050709,0.12706
1,-0.0029232,7.3109,0.0038379,0.14455,-0.038003,0.12066
1,-0.0026684,7.3309,0.0041482,0.13513,-0.025937,0.11493
1,-0.0024181,7.3499,0.0044815,0.12597,-0.014444,0.10969
1,-0.0020794,7.3664,0.0048279,0.11839,-0.0034747,0.10508
1,-0.0016544,7.3807,0.0051792,0.11156,0.0070328,0.10082
1,-0.0011317,7.3949,0.0055351,0.10354,0.017115,0.096962
1,-0.00051506,7.4108,0.0059017,0.092807,0.026812,0.094145
1,0.00016619,7.4276,0.0062117,0.071065,0.036226,0.082422
1,0.00090087,7.4416,0.0064418,0.046529,0.044468,0.071272
1,0.0016666,7.4498,0.0066782,0.019954,0.051595,0.062941
1,0.002458,7.4516,0.0069527,-0.0084146,0.057889,0.056887
1,0.0032707,7.4488,0.0072523,-0.037813,0.063578,0.052256
1,0.004114,7.4438,0.007533,-0.067483,0.068804,0.048539
1,0.0049697,7.4379,0.0077191,-0.097234,0.073658,0.045522
1,0.0058223,7.4305,0.0077875,-0.12767,0.07821,0.042436
1,0.0066725,7.4203,0.0077257,-0.15971,0.082453,0.038866
1,0.0075337,7.4061,0.0075495,-0.19327,0.08634,0.034791
1,0.0084173,7.3869,0.0072984,-0.22689,0.089819,0.030459
1,0.0092799,7.3618,0.006992,-0.25802,0.092865,0.026011
1,0.010125,7.3303,0.0066398,-0.28409,0.095466,0.021486
1,0.010982,7.294,0.0062563,-0.30435,0.097615,0.016813
1,0.011836,7.2552,0.0058535,-0.32017,0.099296,0.011952
1,0.012648,7.2149,0.005415,-0.33367,0.10049,0.0069366
1,0.013359,7.172,0.0049535,-0.34642,0.10118,0.0019064
1,0.013921,7.1253,0.0044796,-0.35884,0.10138,-0.0029807
1,0.01432,7.0754,0.0039954,-0.37067,0.10108,-0.0078656
1,0.014584,7.0243,0.0035027,-0.38125,0.10029,-0.013132
1,0.014763,6.9738,0.0029832,-0.38889,0.098978,-0.019014
1,0.014885,6.9256,0.002468,-0.39135,0.097076,-0.025244
1,0.014946,6.8817,0.0019561,-0.38729,0.094552,-0.030812
1,0.014971,6.8429,0.0014077,-0.3777,0.091471,-0.039785
1,0.014978,6.8084,0.00084863,-0.36483,0.087492,-0.057835
1,0.014944,6.7765,0.00030061,-0.34955,0.081709,-0.090224
1,0.014877,6.7451,-0.00021198,-0.33135,0.072686,-0.13486
1,0.014782,6.7129,-0.00064919,-0.31032,0.0592,-0.18174
1,0.014663,6.679,-0.0010043,-0.28806,0.041026,-0.22211
2,0.013208,5.7113,-0.00013616,0.16683,0.05514,-0.019256
2,0.01327,5.7367,-0.00010643,0.18721,0.053215,-0.022108
2,0.013319,5.7596,-9.54E-05,0.19816,0.051004,-0.024109
2,0.013338,5.7801,-9.65E-05,0.20297,0.048593,-0.025233
2,0.013319,5.7985,-0.00011488,0.20408,0.04607,-0.02552
2,0.013275,5.8151,-0.00015308,0.20293,0.043518,-0.024813
2,0.013231,5.8301,-0.0002202,0.20024,0.041036,-0.024087
2,0.013189,5.8438,-0.00029793,0.19643,0.038628,-0.023775
2,0.013148,5.8563,-0.00038148,0.19189,0.03625,-0.023363
2,0.013109,5.8677,-0.00048142,0.18683,0.033914,-0.023036
2,0.013072,5.8781,-0.00058458,0.18102,0.03161,-0.046255
2,0.013091,5.9172,-0.00076023,0.1699,0.026985,-0.045189
2,0.013094,5.9491,-0.0009374,0.15764,0.022466,-0.044288
2,0.013083,5.9752,-0.0010997,0.14466,0.018037,-0.043386
2,0.013047,5.997,-0.0012361,0.13202,0.013698,-0.042237
2,0.012979,6.0157,-0.0013478,0.12072,0.0094747,-0.040986
2,0.012856,6.0317,-0.0014631,0.11101,0.0053761,-0.039851
2,0.012702,6.0453,-0.0015816,0.10218,0.001391,-0.038746
2,0.012522,6.0567,-0.0017031,0.093071,-0.0024835,-0.037772
2,0.012294,6.0663,-0.0018208,0.082937,-0.0062607,-0.036987
2,0.012039,6.0734,-0.0019422,0.072118,-0.0099595,-0.036384
2,0.01175,6.0765,-0.0021003,0.046875,-0.013598,-0.033662
2,0.011444,6.0749,-0.0022508,0.025669,-0.016964,-0.031071
2,0.011139,6.0694,-0.0024017,0.0071979,-0.020071,-0.028714
2,0.010847,6.0625,-0.0025396,-0.010307,-0.022943,-0.026555
2,0.010579,6.0565,-0.0026472,-0.027414,-0.025598,-0.024764
2,0.010305,6.0521,-0.0027098,-0.043297,-0.028075,-0.022752
2,0.010026,6.0481,-0.0027419,-0.057048,-0.03035,-0.020334
2,0.0097417,6.0424,-0.0027421,-0.068767,-0.032383,-0.017933
2,0.0094673,6.0335,-0.0026897,-0.078981,-0.034176,-0.015156
2,0.0091877,6.0224,-0.002587,-0.087161,-0.035692,-0.012088
2,0.0088906,6.011,-0.0024166,-0.091612,-0.036901,-0.0087077
2,0.0085922,6.0004,-0.0022032,-0.091135,-0.037772,-0.0051839
2,0.0082795,5.9896,-0.0019608,-0.086581,-0.03829,-0.0015965
2,0.0079681,5.9764,-0.0016945,-0.080411,-0.03845,0.0020479
2,0.0076842,5.9609,-0.0014216,-0.074992,-0.038245,0.0057419
2,0.0074362,5.9451,-0.00113,-0.071101,-0.037671,0.0094925
2,0.0072179,5.9312,-0.00081634,-0.067539,-0.036721,0.013245
2,0.0070373,5.9192,-0.00049106,-0.062204,-0.035397,0.017179
2,0.0069142,5.9083,-0.00024172,-0.053816,-0.033679,0.022046
2,0.006865,5.899,9.62E-05,-0.04304,-0.031474,0.024962
2,0.0069164,5.8933,0.0009285,-0.031394,-0.028978,0.022048
2,0.007038,5.8926,0.0018671,-0.018962,-0.026773,0.0035596
2,0.0072175,5.8963,0.0021567,-0.0038084,-0.026417,-0.035435
2,0.0074581,5.9017,0.0012577,0.016132,-0.029961,-0.090311
2,0.0077361,5.9065,-0.0014735,0.040597,-0.038992,-0.15759
2,0.0080451,5.9099,-0.0060296,0.067042,-0.054751,-0.23356
2,0.0083929,5.9131,-0.011951,0.093164,-0.078107,-0.31669
2,0.0087595,5.918,-0.019014,0.11857,-0.10978,-0.40546
2,0.0089839,5.9259,-0.027056,0.14389,-0.15032,-0.4991
3,0.0074086,2.9761,7.69E-06,0.036537,0.13552,0.0042728
3,0.0074159,2.9805,4.25E-06,0.038755,0.13594,-0.0098655
3,0.0074034,2.9845,1.78E-06,0.039802,0.13496,-0.022575
3,0.0073973,2.9881,1.38E-08,0.040063,0.1327,-0.030854
3,0.0073955,2.9913,-1.25E-06,0.039789,0.12961,-0.034724
3,0.0073966,2.9943,6.07E-06,0.039153,0.12614,-0.036602
3,0.0073996,2.997,1.14E-05,0.038283,0.12248,-0.037944
3,0.007404,2.9995,1.51E-05,0.037276,0.11869,-0.038904
3,0.0074092,3.0017,1.09E-05,0.036184,0.1148,-0.039756
3,0.0074149,3.0038,1.00E-06,0.035053,0.11082,-0.026613
3,0.0074108,3.0114,-9.79E-06,0.033191,0.10816,-0.038409
3,0.0074075,3.0178,-1.98E-05,0.031468,0.10432,-0.049897
3,0.0074047,3.023,-1.89E-05,0.029879,0.099328,-0.060936
3,0.0074024,3.0273,-2.02E-05,0.028401,0.093235,-0.071504
3,0.0074005,3.0309,-2.29E-05,0.026907,0.086084,-0.081418
3,0.0074121,3.0339,-2.64E-05,0.025403,0.077942,-0.09047
3,0.0074217,3.0363,-3.04E-05,0.024282,0.068895,-0.10071
3,0.0074296,3.0383,-4.12E-05,0.024299,0.058824,-0.10649
3,0.007423,3.04,-5.09E-05,0.026405,0.048175,-0.10127
3,0.0074044,3.0414,-5.31E-05,0.031411,0.038048,-0.08746
3,0.007389,3.0425,-5.05E-05,0.037107,0.029302,-0.070435
3,0.0073762,3.0434,-3.52E-05,0.047433,0.022258,-0.048031
3,0.0073657,3.0442,-1.60E-05,0.062385,0.017455,-0.023244
3,0.007357,3.0449,-4.39E-08,0.081474,0.015131,-0.0014209
3,0.0073498,3.0451,2.63E-05,0.10396,0.014989,0.01558
3,0.0073438,3.0451,5.47E-05,0.12917,0.016547,0.029401
3,0.0073389,3.0455,7.81E-05,0.1566,0.019487,0.040998
3,0.0073216,3.0481,9.75E-05,0.18587,0.023587,0.05073
3,0.0073073,3.0546,0.00013333,0.21668,0.02866,0.059285
3,0.0073087,3.0666,0.00018269,0.24876,0.034588,0.066752
3,0.0073098,3.0857,0.00023669,0.28187,0.041263,0.073189
3,0.0073371,3.1126,0.00028794,0.31584,0.048582,0.078807
3,0.0073728,3.1478,0.00033692,0.35051,0.056463,0.083745
3,0.0074023,3.1903,0.00038402,0.38578,0.064837,0.088022
3,0.0074531,3.2389,0.00042956,0.4218,0.07364,0.091539
3,0.0075214,3.2922,0.00047382,0.45843,0.082793,0.093774
3,0.0075779,3.3495,0.00051702,0.49483,0.092171,0.096463
3,0.0076247,3.4101,0.00057249,0.52953,0.10182,0.09784
3,0.0076897,3.4734,0.00062497,0.5607,0.1116,0.093714
3,0.0077698,3.5389,0.00065522,0.58665,0.12097,0.084546
3,0.0078624,3.6062,0.00066708,0.60583,0.12943,0.072382
3,0.0079521,3.6751,0.00063741,0.61704,0.13667,0.057519
3,0.0080395,3.7452,0.00058654,0.62003,0.14242,0.037521
3,0.008125,3.8164,0.0005313,0.61564,0.14617,0.0097663
3,0.0082089,3.8887,0.00045269,0.60518,0.14715,-0.027461
3,0.0082914,3.9619,0.00035475,0.58993,0.1444,-0.072934
3,0.0083729,4.0352,0.00026057,0.57075,0.13711,-0.12297
3,0.0084666,4.1071,0.0001695,0.54831,0.12481,-0.17597
3,0.0085573,4.176,5.47E-05,0.52316,0.10721,-0.23211
3,0.0086191,4.2399,-7.32E-05,0.49576,0.084001,-0.29087
4,-0.076418,9.1018,-0.04767,-0.056856,-0.026049,-0.18298
4,-0.081711,9.0923,-0.049478,-0.059769,-0.044347,-0.247
4,-0.08609,9.0847,-0.048954,-0.063173,-0.069047,-0.29297
4,-0.089712,9.0787,-0.04444,-0.065752,-0.098344,-0.31046
4,-0.092722,9.074,-0.035139,-0.067353,-0.12939,-0.29565
4,-0.095199,9.0704,-0.022508,-0.068888,-0.15895,-0.25598
4,-0.097248,9.0668,-0.0091768,-0.070177,-0.18455,-0.20677
4,-0.098956,9.0615,0.0029312,-0.069289,-0.20523,-0.16098
4,-0.10037,9.0529,0.012974,-0.06481,-0.22133,-0.12413
4,-0.10155,9.0417,0.021309,-0.058163,-0.23374,-0.091499
4,-0.10273,9.0299,0.028191,-0.052934,-0.24289,-0.056105
4,-0.10349,9.0195,0.034068,-0.051991,-0.2485,-0.010011
4,-0.10207,9.0118,0.039476,-0.055889,-0.2495,0.045326
4,-0.096808,9.0067,0.044786,-0.063636,-0.24497,0.10357
4,-0.086891,9.0026,0.050048,-0.074315,-0.23461,0.15729
4,-0.073752,8.9981,0.055203,-0.087348,-0.21888,0.20455
4,-0.059894,8.9935,0.060278,-0.1015,-0.19843,0.24897
4,-0.047127,8.9913,0.065285,-0.11475,-0.17353,0.28751
4,-0.036354,8.993,0.070237,-0.12559,-0.14478,0.3177
4,-0.027403,8.9963,0.075157,-0.13438,-0.11301,0.33611
4,-0.020037,8.9959,0.080141,-0.14314,-0.0794,0.34503
4,-0.013575,8.9883,0.084968,-0.15376,-0.044897,0.34923
4,-0.0071373,8.9729,0.088738,-0.16718,-0.0099736,0.34575
4,-0.00013955,8.9514,0.090594,-0.18302,0.024602,0.33519
4,0.0073737,8.9254,0.090161,-0.19983,0.058121,0.31925
4,0.015208,8.8957,0.088361,-0.21631,0.090046,0.2973
4,0.023308,8.8638,0.086511,-0.23272,0.11978,0.27054
4,0.031615,8.832,0.085335,-0.25071,0.14683,0.24136
4,0.040106,8.8018,0.0851,-0.2711,0.17097,0.20981
4,0.048762,8.7729,0.085682,-0.29172,0.19195,0.17156
4,0.057555,8.7436,0.085318,-0.30484,0.2091,0.14762
4,0.066448,8.712,0.085612,-0.31246,0.22386,0.10107
4,0.075411,8.6774,0.085756,-0.31412,0.23397,0.032384
4,0.084379,8.6406,0.085181,-0.31108,0.23721,-0.047469
4,0.09343,8.6029,0.083943,-0.30465,0.23246,-0.12288
4,0.10297,8.5655,0.082266,-0.29556,0.22017,-0.18907
4,0.11313,8.5281,0.080242,-0.28458,0.20127,-0.25477
4,0.12354,8.4899,0.077964,-0.27291,0.17579,-0.31138
4,0.13385,8.4508,0.07548,-0.26151,0.14465,-0.34626
4,0.14396,8.4128,0.071152,-0.2471,0.11003,-0.34151
4,0.1506,8.3863,0.070269,-0.24466,0.075876,-0.13323
4,0.15765,8.3634,0.069232,-0.24068,0.062552,-0.12436
4,0.16438,8.3447,0.068032,-0.23453,0.050117,-0.1151
4,0.17022,8.3293,0.066679,-0.22618,0.038607,-0.11261
4,0.17526,8.3161,0.065091,-0.21614,0.027346,-0.12371
4,0.17974,8.3046,0.062925,-0.2048,0.014975,-0.14623
4,0.18379,8.2947,0.059953,-0.19179,0.00035223,-0.17448
4,0.18754,8.2861,0.056269,-0.17597,-0.017096,-0.20396
4,0.19107,8.2787,0.052019,-0.15645,-0.037491,-0.22818
4,0.19107,8.2787,0.052019,-0.15645,-0.060309,-0.22818
5,0.0172978,10.5612,-0.032021,-0.70389,-0.08166,-0.3169
5,0.0125858,10.4723,-0.032976,-0.73524,-0.11335,-0.3132
5,0.00827962,10.3851,-0.033336,-0.76658,-0.14467,-0.30222
5,0.00455933,10.2995,-0.032501,-0.79479,-0.17489,-0.27992
5,0.00158693,10.2159,-0.030602,-0.81731,-0.20288,-0.24909
5,-0.000819399,10.135,-0.027843,-0.80943,-0.22779,-0.2014
5,-0.00302068,10.0564,-0.024554,-0.79491,-0.24793,-0.15211
5,-0.00518395,9.97826,-0.020912,-0.77489,-0.26314,-0.10203
5,-0.00731577,9.8991,-0.016925,-0.74909,-0.27335,-0.052157
5,-0.00943473,9.81878,-0.012935,-0.717,-0.27856,-0.0044752
5,-0.0116352,9.73745,-0.0092794,-0.67957,-0.27901,0.039573
5,-0.0138241,9.65539,-0.0059787,-0.63959,-0.27505,0.079535
5,-0.0154112,9.57424,-0.0030573,-0.59988,-0.2671,0.11538
5,-0.0157633,9.49695,-0.00061418,-0.56204,-0.25556,0.14678
5,-0.0149359,9.42631,0.0013477,-0.52763,-0.24088,0.17329
5,-0.0133168,9.36474,0.0029905,-0.49832,-0.22355,0.19592
5,-0.0112404,9.31315,0.0045601,-0.47455,-0.20396,0.21565
5,-0.00886452,9.27095,0.0058981,-0.45514,-0.1824,0.23256
5,-0.00617512,9.23852,0.0060968,-0.43875,-0.15914,0.24696
5,-0.00352908,9.21602,0.0043461,-0.42482,-0.13445,0.26007
5,-0.00126111,9.202,0.00031813,-0.41297,-0.10844,0.27242
5,0.000628275,9.19309,-0.0053175,-0.40275,-0.081197,0.28047
5,0.00216499,9.18532,-0.011552,-0.39435,-0.05315,0.27762
5,0.00333097,9.17539,-0.017559,-0.38886,-0.025388,0.26099
5,0.0042824,9.1606,-0.022917,-0.38749,0.00071019,0.23416
5,0.00516162,9.13837,-0.027823,-0.39135,0.024127,0.20237
5,0.00609956,9.10729,-0.032264,-0.40081,0.044363,0.1675
5,0.00661226,9.06798,-0.036273,-0.41545,0.061113,0.13031
5,0.00487785,9.0216,-0.039964,-0.43537,0.074144,0.093068
5,-0.00074245,8.96914,-0.043235,-0.4607,0.083451,0.058262
5,-0.0109989,8.9115,-0.045988,-0.49083,0.089277,0.026482
5,-0.024459,8.84989,-0.048278,-0.52375,0.091925,-0.0022115
5,-0.0385161,8.78554,-0.050146,-0.55622,0.091704,-0.027628
5,-0.0508822,8.71923,-0.051593,-0.58425,0.088941,-0.049549
5,-0.0607701,8.65134,-0.052789,-0.60409,0.083986,-0.068484
5,-0.0689633,8.58203,-0.053878,-0.61281,0.077138,-0.085171
5,-0.0757676,8.51152,-0.054996,-0.6091,0.068621,-0.099748
5,-0.0814097,8.44006,-0.055552,-0.59378,0.058646,-0.11035
5,-0.0861037,8.36779,-0.05365,-0.56809,0.047611,-0.1153
5,-0.09,8.29461,-0.047693,-0.53301,0.036081,-0.11505
5,-0.0932365,8.22034,-0.036961,-0.4897,0.024576,-0.11082
5,-0.0959271,8.1456,-0.02291,-0.43989,0.013494,-0.10283
5,-0.0981266,8.07287,-0.0081668,-0.38529,0.0032106,-0.089821
5,-0.0998541,8.00689,0.0049579,-0.32707,-0.0057715,-0.072464
5,-0.101296,7.95242,0.015677,-0.26585,-0.013018,-0.052503
5,-0.102595,7.91276,0.024756,-0.20206,-0.018268,-0.03163
5,-0.103893,7.88909,0.032484,-0.13624,-0.021431,-0.010251
5,-0.104493,7.88041,0.038982,-0.068862,-0.022456,0.010834
5,-0.102422,7.88542,0.044548,0.00012859,-0.021373,0.031125
5,-0.0961293,7.90312,0.050081,0.071674,-0.01826,0.054933
6,0.00538062,9.91595,-0.029039,0.10881,-0.22792,0.020919
6,0.0031164,9.92415,-0.028497,0.12024,-0.22582,0.024458
6,0.00153849,9.93762,-0.027628,0.13134,-0.22338,0.028728
6,0.000467386,9.95443,-0.026352,0.14233,-0.22051,0.035136
6,-0.000242003,9.97308,-0.025503,0.15273,-0.21699,-0.0017969
6,-0.00275361,9.99344,-0.024727,0.17366,-0.21717,0.024817
6,-0.00502881,10.0174,-0.026065,0.19329,-0.21469,0.048888
6,-0.00718743,10.0437,-0.028995,0.20937,-0.2098,0.07167
6,-0.00924959,10.0713,-0.032392,0.21974,-0.20263,0.093379
6,-0.0112583,10.1,-0.035228,0.22266,-0.1933,0.11539
6,-0.0132885,10.1293,-0.037455,0.21707,-0.18176,0.136
6,-0.0152709,10.1596,-0.039485,0.20276,-0.16816,0.15341
6,-0.0165554,10.1916,-0.041319,0.18071,-0.15282,0.16505
6,-0.0168941,10.2257,-0.042966,0.15327,-0.13631,0.16817
6,-0.0178325,10.2607,-0.044424,0.12285,-0.11949,0.16352
6,-0.0218071,10.2943,-0.044674,0.090683,-0.10314,0.15949
6,-0.0298334,10.3235,-0.044783,0.056007,-0.087194,0.15124
6,-0.0406457,10.3454,-0.044747,0.0187,-0.07207,0.13996
6,-0.0521043,10.3577,-0.044593,-0.02141,-0.058074,0.12764
6,-0.0618996,10.3594,-0.04432,-0.06418,-0.04531,0.11661
6,-0.0695291,10.3501,-0.043917,-0.10911,-0.033649,0.10687
6,-0.075854,10.3297,-0.043445,-0.15592,-0.022962,0.098086
6,-0.0810996,10.2991,-0.043331,-0.20486,-0.013153,0.088533
6,-0.0854654,10.261,-0.043553,-0.25583,-0.0043002,0.076658
6,-0.0890902,10.2188,-0.042499,-0.30749,0.0033656,0.06276
6,-0.0921022,10.1748,-0.037896,-0.35713,0.0096416,0.051209
6,-0.0945938,10.1294,-0.028968,-0.40175,0.014762,0.041154
6,-0.0966815,10.0811,-0.017074,-0.4387,0.018878,0.031447
6,-0.0984348,10.0285,-0.0043458,-0.46646,0.022023,0.023353
6,-0.0998985,9.97159,0.0067764,-0.48533,0.024358,0.012402
6,-0.101122,9.9111,0.015602,-0.49608,0.025598,-0.00046876
6,-0.102161,9.84779,0.023029,-0.49898,0.025551,-0.011953
6,-0.103218,9.78192,0.02937,-0.49445,0.024356,-0.020304
6,-0.104,9.71399,0.03482,-0.48482,0.022326,-0.023806
6,-0.102831,9.64571,0.039519,-0.4742,0.019945,-0.022639
6,-0.0975995,9.58004,0.043604,-0.46616,0.017681,-0.017773
6,-0.0877698,9.52001,0.047162,-0.46105,0.015904,-0.010459
6,-0.0747943,9.46798,0.050308,-0.4559,0.014858,-0.0010564
6,-0.060796,9.42478,0.053116,-0.44716,0.014752,0.0094008
6,-0.0483469,9.38876,0.055635,-0.43326,0.015692,0.019565
6,-0.0383244,9.35793,0.057924,-0.41478,0.017649,0.029201
6,-0.0297963,9.33171,0.059936,-0.39288,0.020569,0.03707
6,-0.0223594,9.31014,0.061837,-0.36801,0.024276,0.043384
6,-0.0158255,9.29133,0.064054,-0.33989,0.028614,0.051825
6,-0.0100516,9.27037,0.06656,-0.30837,0.033797,0.067552
6,-0.0048933,9.24247,0.068798,-0.27412,0.040552,0.092432
6,-0.000270634,9.20726,0.070406,-0.23853,0.049795,0.12681
6,0.00393527,9.16926,0.07165,-0.20333,0.062476,0.16806
6,0.00779638,9.13419,0.073291,-0.16962,0.079282,0.21319
6,0.0113723,9.10507,0.076492,-0.13684,0.1006,0.26383
7,-0.12134,7.1935,-0.054904,-0.039139,-0.20969,-0.048096
7,-0.12602,7.1785,-0.041801,-0.089876,-0.2145,-0.067011
7,-0.12955,7.1646,-0.025571,-0.14083,-0.2212,-0.060427
7,-0.13147,7.1497,-0.0090257,-0.19319,-0.22725,-0.052348
7,-0.13178,7.1297,0.0056162,-0.245,-0.23248,-0.058939
7,-0.13103,7.1014,0.01769,-0.29269,-0.23837,-0.079145
7,-0.12981,7.0644,0.02775,-0.3336,-0.24629,-0.10164
7,-0.12842,7.0197,0.03602,-0.36538,-0.25645,-0.11658
7,-0.12661,6.9694,0.042907,-0.38663,-0.26811,-0.11462
7,-0.12275,6.9173,0.048651,-0.39915,-0.27957,-0.096432
7,-0.11518,6.8662,0.053489,-0.40731,-0.28922,-0.067239
7,-0.10311,6.8161,0.057603,-0.41562,-0.29594,-0.03149
7,-0.087863,6.7642,0.060848,-0.42577,-0.29909,0.0066518
7,-0.072239,6.7079,0.063039,-0.43572,-0.29842,0.04297
7,-0.058419,6.6481,0.064207,-0.44174,-0.29413,0.082247
7,-0.047091,6.5884,0.064659,-0.44131,-0.2859,0.13341
7,-0.03772,6.5326,0.064751,-0.43371,-0.27256,0.19961
7,-0.030086,6.4834,0.064649,-0.41872,-0.2526,0.27463
7,-0.023797,6.4429,0.064229,-0.39654,-0.22514,0.34714
7,-0.01862,6.4094,0.062697,-0.36914,-0.19042,0.40204
7,-0.014364,6.3789,0.059245,-0.3392,-0.15022,0.42894
7,-0.010817,6.3472,0.05348,-0.30774,-0.10733,0.42773
7,-0.0078561,6.313,0.046098,-0.27302,-0.064553,0.40553
7,-0.0053936,6.2783,0.038485,-0.23256,-0.023999,0.37506
7,-0.0033695,6.2462,0.031738,-0.18606,0.013507,0.34652
7,-0.0017082,6.2188,0.026217,-0.13571,0.048159,0.32456
7,-0.00030757,6.197,0.021656,-0.08408,0.080616,0.3068
7,0.00087748,6.1823,0.017948,-0.033329,0.1113,0.28785
7,0.0018447,6.1764,0.0149,0.015191,0.14008,0.26184
7,0.0026448,6.179,0.012406,0.061884,0.16626,0.22829
7,0.0033067,6.1878,0.010362,0.10849,0.18909,0.19154
7,0.0038543,6.2006,0.0086574,0.15684,0.20825,0.15629
7,0.0043337,6.2182,0.007241,0.20742,0.22388,0.12323
7,0.0047302,6.2428,0.0060758,0.25909,0.2362,0.09116
7,0.0050582,6.2759,0.0051251,0.31021,0.24532,0.059238
7,0.0053428,6.317,0.0043517,0.35976,0.25124,0.027806
7,0.0055913,6.3644,0.0036922,0.40668,0.25402,-0.0022742
7,0.0058101,6.4168,0.0031268,0.44896,0.25379,-0.029752
7,0.0060043,6.4733,0.0026789,0.4843,0.25082,-0.053053
7,0.0061912,6.5331,0.0023149,0.51195,0.24551,-0.072722
7,0.0063591,6.5959,0.0020532,0.53366,0.23824,-0.089284
7,0.0064979,6.6609,0.0017997,0.54653,0.22931,-0.10241
7,0.0066259,6.7279,0.0015705,0.55739,0.21907,-0.11408
7,0.0067581,6.7964,0.0013889,0.56357,0.20766,-0.12427
7,0.0068807,6.8666,0.0012481,0.56311,0.19523,-0.13326
7,0.0069952,6.9383,0.0011272,0.5561,0.18191,-0.14173
7,0.0070768,7.0103,0.0010229,0.54381,0.16774,-0.14922
7,0.0071311,7.0802,0.00093278,0.5274,0.15281,-0.15326
7,0.0072024,7.145,0.00085467,0.50755,0.13749,-0.15166
7,0.0072745,7.2029,0.00076852,0.48475,0.12232,-0.14458
8,0.0389397,6.53299,-0.013987,-0.12711,0.15881,-0.045734
8,0.0370026,6.51513,-0.015677,-0.14801,0.15424,-0.058769
8,0.0352004,6.49898,-0.016539,-0.1628,0.14836,-0.064733
8,0.0335318,6.48435,-0.016963,-0.17341,0.14189,-0.067283
8,0.0319914,6.47106,-0.017092,-0.18115,0.13516,-0.067423
8,0.0305713,6.45905,-0.017015,-0.18681,0.12842,-0.066021
8,0.0292626,6.44827,-0.016807,-0.19095,0.12181,-0.063802
8,0.0280409,6.43836,-0.016516,-0.19397,0.11543,-0.061123
8,0.0269174,6.42855,-0.016173,-0.19617,0.10932,-0.058161
8,0.0258965,6.41793,-0.015793,-0.19776,0.10351,-0.054971
8,0.0249522,6.40588,-0.015386,-0.19889,0.098008,-0.11317
8,0.0216952,6.37018,-0.014741,-0.20074,0.086692,-0.10712
8,0.0190929,6.33763,-0.014115,-0.20325,0.07598,-0.10102
8,0.0168875,6.30755,-0.013494,-0.20654,0.065877,-0.093856
8,0.0150103,6.27938,-0.012861,-0.21012,0.056492,-0.084159
8,0.0134179,6.25277,-0.012232,-0.21052,0.048076,-0.073481
8,0.0120479,6.22747,-0.011539,-0.20149,0.040728,-0.063305
8,0.0108619,6.20325,-0.011232,-0.17562,0.034397,-0.056833
8,0.00982812,6.17989,-0.011981,-0.12552,0.028714,-0.058599
8,0.0089334,6.15726,-0.01426,-0.04563,0.022854,-0.072328
8,0.00816691,6.13521,-0.017825,0.063858,0.015621,-0.094765
8,0.00751964,6.11364,-0.020696,0.20662,0.0061448,-0.108
8,0.00697101,6.09247,-0.02359,0.35977,-0.0046549,-0.11721
8,0.00654348,6.07126,-0.026123,0.5157,-0.016376,-0.11995
8,0.00626876,6.05082,-0.028613,0.66859,-0.028371,-0.11985
8,0.0061073,6.03801,-0.031074,0.81609,-0.040356,-0.11733
8,0.00618432,6.04529,-0.03336,0.95897,-0.05209,-0.11162
8,0.00557678,6.08711,-0.035337,1.0982,-0.063252,-0.10211
8,0.00295512,6.17751,-0.037019,1.2346,-0.073463,-0.089223
8,-0.00262264,6.32667,-0.038495,1.3685,-0.082386,-0.073807
8,-0.0106985,6.5336,-0.039816,1.5004,-0.089766,-0.056033
8,-0.019696,6.78341,-0.041013,1.6305,-0.09537,-0.036354
8,-0.028087,7.05716,-0.042056,1.7593,-0.099005,-0.015257
8,-0.0353577,7.33895,-0.042906,1.8871,-0.10053,-0.0011742
8,-0.0422148,7.61657,-0.043596,2.0136,-0.10065,-0.0064643
8,-0.04873,7.88496,-0.044141,2.1318,-0.10129,-0.033102
8,-0.0546725,8.14542,-0.04471,2.2296,-0.1046,-0.071999
8,-0.0598124,8.39974,-0.044397,2.2926,-0.1118,-0.11251
8,-0.0642093,8.64906,-0.041908,2.3069,-0.12306,-0.14345
8,-0.0680573,8.89424,-0.036433,2.2627,-0.1374,-0.15226
8,-0.0714644,9.13597,-0.02862,2.1605,-0.15263,-0.1402
8,-0.0745067,9.37474,-0.020188,2.0149,-0.16665,-0.11905
8,-0.077142,9.611,-0.01272,1.8445,-0.17855,-0.1021
8,-0.0792694,9.84553,-0.0066663,1.6653,-0.18876,-0.093632
8,-0.0809241,10.078,-0.0012438,1.4896,-0.19812,-0.088426
8,-0.0821746,10.3017,0.0036435,1.3226,-0.20697,-0.084409
8,-0.0832353,10.5044,0.0077985,1.1632,-0.21541,-0.081262
8,-0.0832179,10.6722,0.011032,1.0095,-0.22353,-0.080254
8,-0.0808606,10.7914,0.013417,0.86058,-0.23156,-0.082567
8,-0.0754884,10.852,0.015186,0.71547,-0.23982,-0.088669
9,0.0288178,8.59796,0.03701,0.49204,-0.17038,0.45738
9,0.0315399,8.64996,0.033651,0.48608,-0.12464,0.41897
9,0.0340418,8.69518,0.030701,0.47858,-0.082741,0.38145
9,0.0363617,8.73572,0.027971,0.47107,-0.044596,0.34425
9,0.0385441,8.7752,0.02541,0.46378,-0.01017,0.30675
9,0.0406259,8.81641,0.023015,0.45644,0.020505,0.26959
9,0.0426114,8.85947,0.020817,0.44892,0.047464,0.2311
9,0.0445435,8.90203,0.018708,0.44141,0.070574,0.18774
9,0.0464446,8.94109,0.016326,0.43452,0.089348,0.13524
9,0.048478,8.97515,0.013289,0.42934,0.10287,0.075158
9,0.0507656,9.0056,0.0095193,0.42732,0.11039,0.014468
9,0.0529608,9.03576,0.0053479,0.42978,0.11183,-0.038677
9,0.0546584,9.06895,0.0011732,0.43705,0.10797,-0.07993
9,0.0557732,9.10685,-0.0027345,0.448,0.099974,-0.10776
9,0.0563927,9.1492,-0.0063094,0.46062,0.089198,-0.11827
9,0.0566288,9.19504,-0.0096289,0.47337,0.077372,-0.11496
9,0.0566662,9.24351,-0.012704,0.48602,0.065876,-0.10481
9,0.0564339,9.29385,-0.015603,0.4997,0.055395,-0.093543
9,0.0552545,9.34544,-0.01839,0.51594,0.046041,-0.086072
9,0.0524231,9.39816,-0.021235,0.53515,0.037434,-0.083496
9,0.0478563,9.4526,-0.024273,0.55553,0.029084,-0.081722
9,0.0422357,9.50953,-0.027208,0.57392,0.020912,-0.077433
9,0.0363883,9.56928,-0.029681,0.58741,0.013168,-0.070151
9,0.0308927,9.63171,-0.031642,0.59471,0.0061533,-0.059526
9,0.0259252,9.69645,-0.033185,0.59636,0.00020072,-0.045998
9,0.0213682,9.76315,-0.03439,0.59349,-0.0043991,-0.030173
9,0.0172035,9.8315,-0.035432,0.58719,-0.0074164,-0.013365
9,0.013337,9.90142,-0.036156,0.57837,-0.0087529,0.0061659
9,0.00966446,9.97297,-0.036071,0.56768,-0.0081363,0.031491
9,0.00600769,10.0454,-0.035362,0.55508,-0.0049872,0.05924
9,0.00221916,10.1167,-0.034782,0.53987,0.00093681,0.082298
9,-0.00145462,10.1836,-0.03544,0.52142,0.0091666,0.091588
9,-0.00470442,10.2438,-0.037499,0.49977,0.018325,0.0848
9,-0.00751135,10.2963,-0.040229,0.47543,0.026805,0.067005
9,-0.00997823,10.3419,-0.042671,0.44887,0.033506,0.044213
9,-0.0121506,10.382,-0.044297,0.42039,0.037927,0.019861
9,-0.0141979,10.4179,-0.045451,0.39024,0.039913,-0.0066731
9,-0.0158783,10.4506,-0.046201,0.35858,0.039246,-0.034859
9,-0.0168868,10.4808,-0.046572,0.32554,0.03576,-0.064099
9,-0.0183003,10.5083,-0.046576,0.29158,0.02935,-0.092928
9,-0.0217071,10.5323,-0.046211,0.25785,0.020057,-0.11908
9,-0.0286451,10.5524,-0.045626,0.22593,0.0081497,-0.14153
9,-0.0386097,10.5688,-0.045037,0.19714,-0.0060028,-0.16092
9,-0.0495645,10.5826,-0.044504,0.17196,-0.022095,-0.17824
9,-0.0594168,10.5942,-0.043983,0.15003,-0.039919,-0.19383
9,-0.0672251,10.6039,-0.043493,0.1307,-0.059301,-0.20801
9,-0.0736978,10.612,-0.045232,0.11282,-0.080102,-0.23352
9,-0.0790657,10.6186,-0.047587,0.096335,-0.10345,-0.26188
9,-0.0834801,10.624,-0.050547,0.081029,-0.12964,-0.29321
9,-0.0871452,10.6286,-0.0525,0.067301,-0.15896,-0.31771
10,-0.068639,3.8546,0.017148,-0.78967,0.12892,-0.5554
10,-0.069405,3.7707,0.021464,-0.75022,0.073382,-0.52015
10,-0.069434,3.6878,0.025121,-0.7108,0.021367,-0.48016
10,-0.067022,3.6066,0.028205,-0.67187,-0.02665,-0.4343
10,-0.060974,3.5282,0.030829,-0.63323,-0.07008,-0.3813
10,-0.052034,3.4543,0.033072,-0.59469,-0.10821,-0.32219
10,-0.042191,3.3867,0.035,-0.55631,-0.14043,-0.25834
10,-0.03314,3.3265,0.036674,-0.51798,-0.16626,-0.19041
10,-0.025678,3.2748,0.038138,-0.47909,-0.1853,-0.11899
10,-0.019361,3.2317,0.039395,-0.43915,-0.1972,-0.045053
10,-0.014003,3.1963,0.040395,-0.39829,-0.20171,0.029321
10,-0.0094388,3.1673,0.041322,-0.35717,-0.19878,0.1068
10,-0.0055314,3.1433,0.041785,-0.31642,-0.1881,0.18214
10,-0.0021805,3.1234,0.040951,-0.2764,-0.16988,0.23966
10,0.00072319,3.107,0.038241,-0.23769,-0.14592,0.26438
10,0.003257,3.0933,0.034031,-0.20119,-0.11948,0.25607
10,0.0054847,3.082,0.029324,-0.16771,-0.093871,0.22744
10,0.0074725,3.0726,0.024977,-0.13792,-0.071127,0.19386
10,0.0092485,3.0654,0.021386,-0.1123,-0.051741,0.16468
10,0.010823,3.0607,0.018344,-0.090927,-0.035273,0.13788
10,0.012152,3.058,0.015761,-0.073398,-0.021484,0.11311
10,0.013238,3.0564,0.013559,-0.059022,-0.010173,0.089912
10,0.014137,3.055,0.011671,-0.047143,-0.0011817,0.068269
10,0.01488,3.0538,0.010056,-0.037295,0.0056452,0.047715
10,0.015508,3.0528,0.0086549,-0.029136,0.010417,0.026841
10,0.016028,3.052,0.0073508,-0.022366,0.013101,0.0040498
10,0.016458,3.0513,0.0061864,-0.016726,0.013506,-0.019255
10,0.016813,3.0507,0.0055785,-0.012165,0.01158,-0.034443
10,0.017094,3.0502,0.0059575,-0.0089781,0.0081359,-0.032794
10,0.017327,3.0498,0.0073502,-0.0074274,0.0048565,-0.013346
10,0.017519,3.0495,0.0068874,-0.0061692,0.0035219,-0.01865
10,0.017678,3.0492,0.0065662,-0.005443,0.001657,-0.021953
10,0.01781,3.049,0.0063632,-0.0048423,-0.00053833,-0.023708
10,0.017932,3.0488,0.006267,-0.0043306,-0.0029091,-0.024248
10,0.018033,3.0487,0.0062551,-0.0039502,-0.0053339,-0.02391
10,0.017959,3.0486,0.0063409,-0.0036687,-0.007725,-0.022499
10,0.017858,3.0485,0.0065251,-0.0034584,-0.0099748,-0.020229
10,0.018629,3.0483,0.0068132,-0.0033123,-0.011998,-0.017068
10,0.021163,3.0475,0.0072237,-0.0032633,-0.013705,-0.012888
10,0.025523,3.0458,0.0071075,-0.0030736,-0.014993,-0.0099756
10,0.025927,3.0457,0.0073803,-0.0030702,-0.015991,-0.016847
10,0.026371,3.0455,0.0077019,-0.0030892,-0.017676,-0.014991
10,0.026863,3.0453,0.0080775,-0.0031304,-0.019175,-0.012322
10,0.027414,3.0451,0.0085061,-0.0032108,-0.020407,-0.0075781
10,0.028018,3.0449,0.0090059,-0.0033407,-0.021165,0.0011746
10,0.02871,3.0446,0.0097023,-0.0035329,-0.021047,0.016979
10,0.029508,3.0443,0.010526,-0.0037532,-0.019349,0.039316
10,0.03044,3.044,0.01076,-0.0038334,-0.015418,0.055527
10,0.031542,3.0437,0.0094349,-0.0034456,-0.009865,0.047577
10,0.031542,3.0437,0.0094349,-0.0034456,-0.0051073,0.047577
11,0.0037581,3.2257,0.012413,-0.24524,-0.028956,0.15067
11,0.0043725,3.2011,0.010249,-0.21661,-0.013888,0.11666
11,0.0048808,3.1769,0.0084396,-0.19222,-0.0022228,0.087786
11,0.0053013,3.1546,0.0069423,-0.17197,0.0065558,0.063763
11,0.0056623,3.1357,0.0057169,-0.15547,0.012932,0.04427
11,0.005961,3.1203,0.0046965,-0.14189,0.017359,0.028224
11,0.0062081,3.1078,0.0038524,-0.13015,0.020182,0.015196
11,0.0064256,3.0975,0.0031409,-0.11953,0.021701,0.0047799
11,0.0065924,3.0889,0.0025128,-0.1104,0.022179,-0.0040959
11,0.0067173,3.0819,0.0019932,-0.1038,0.021769,-0.010857
11,0.0068206,3.076,0.0016029,-0.10091,0.020684,-0.014881
11,0.006906,3.0712,0.0012931,-0.10252,0.019196,-0.0172
11,0.0069635,3.0672,0.0010171,-0.10869,0.017476,-0.018657
11,0.0070111,3.0638,0.00076246,-0.11939,0.01561,-0.019422
11,0.0070636,3.0611,0.00051888,-0.13454,0.013668,-0.01953
11,0.0071071,3.0591,0.00030422,-0.15379,0.011715,-0.019299
11,0.007143,3.0579,0.00011347,-0.17643,0.0097849,-0.018565
11,0.0071464,3.0566,-7.72E-05,-0.20174,0.0079285,-0.016892
11,0.0070571,3.0523,-0.00024158,-0.22924,0.0062392,-0.014286
11,0.0069701,3.0423,-0.00037754,-0.25856,0.0048106,-0.011915
11,0.0069639,3.0239,-0.00051633,-0.28941,0.0036192,-0.01053
11,0.0069588,2.996,-0.00065748,-0.32151,0.0025662,-0.009435
11,0.006915,2.9595,-0.00077425,-0.35467,0.0016227,-0.0082089
11,0.0068262,2.9159,-0.00088401,-0.38865,0.00080183,-0.0072136
11,0.0067001,2.8666,-0.0010077,-0.42335,8.05E-05,-0.0068932
11,0.0065694,2.8127,-0.0011364,-0.45893,-0.00060885,-0.0066262
11,0.006435,2.755,-0.001256,-0.4954,-0.0012715,-0.0061522
11,0.0062711,2.694,-0.0013483,-0.53178,-0.0018867,-0.0058468
11,0.0061093,2.6305,-0.0013589,-0.56532,-0.0024714,-0.0040771
11,0.0059622,2.5647,-0.0013677,-0.59306,-0.0028791,-0.0022851
11,0.0057879,2.4972,-0.0014539,-0.6126,-0.0031076,-0.0028808
11,0.005591,2.4281,-0.001545,-0.62267,-0.0033957,-0.004201
11,0.005415,2.3578,-0.0016072,-0.62408,-0.0038158,-0.0055591
11,0.0052431,2.2865,-0.0016191,-0.61844,-0.0043717,-0.0065199
11,0.0050482,2.2144,-0.0015961,-0.60719,-0.0050237,-0.0072171
11,0.0048343,2.1413,-0.0015771,-0.59132,-0.0057454,-0.0078696
11,0.0046311,2.0671,-0.0015482,-0.57159,-0.0065323,-0.0081121
11,0.0044498,1.993,-0.0014848,-0.5487,-0.0073435,-0.0081116
11,0.0043393,1.9217,-0.0014257,-0.52332,-0.0081547,-0.0088704
11,0.0042347,1.8561,-0.0013769,-0.49588,-0.0090417,-0.0094585
11,0.004056,1.7987,-0.0013036,-0.46643,-0.0099876,-0.0091677
11,0.0038688,1.7507,-0.00121,-0.43454,-0.010904,-0.0087268
11,0.0037007,1.7113,-0.0011261,-0.3995,-0.011777,-0.0087706
11,0.0035879,1.679,-0.0010434,-0.36065,-0.012654,-0.0091406
11,0.0035078,1.6522,-0.0009356,-0.31743,-0.013568,-0.0086919
11,0.0034152,1.6301,-0.00082384,-0.28119,-0.014437,-0.0080133
11,0.0033386,1.6118,-0.00072442,-0.24417,-0.015239,-0.007934
11,0.0033016,1.5966,-0.00063512,-0.20688,-0.016032,-0.0072912
11,0.0032578,1.5838,-0.0005722,-0.17069,-0.016761,-0.007016
11,0.0032084,1.573,-0.00052064,-0.13708,-0.017463,-0.0075433
12,-2.40E-05,5.3266,0.0040901,-0.3049,0.12231,0.010648
12,0.00047237,5.2847,0.0042404,-0.31965,0.12338,0.011755
12,0.00096132,5.2456,0.0043707,-0.33199,0.12455,0.012422
12,0.0014325,5.2093,0.0044748,-0.34194,0.1258,0.012929
12,0.0018618,5.1757,0.004578,-0.34974,0.12709,0.013662
12,0.002271,5.1446,0.0046607,-0.35533,0.12846,0.014359
12,0.0026743,5.116,0.0047278,-0.35788,0.12989,0.014833
12,0.0030654,5.0895,0.0047829,-0.35657,0.13137,0.01504
12,0.003426,5.0651,0.0047922,-0.35165,0.13288,0.014618
12,0.0037587,5.0426,0.0047555,-0.34427,0.13434,0.013613
12,0.0040661,5.0217,0.0046871,-0.33554,0.1357,0.029296
12,0.0046404,4.975,0.0045791,-0.32143,0.13863,0.026219
12,0.0052209,4.9282,0.0044374,-0.30775,0.14125,0.022574
12,0.0057932,4.8821,0.0042407,-0.296,0.14351,0.018372
12,0.0063852,4.837,0.0040583,-0.28779,0.14535,0.015015
12,0.006967,4.7936,0.0039132,-0.28438,0.14685,0.012876
12,0.0075405,4.754,0.0037477,-0.28649,0.14814,0.011184
12,0.008107,4.7204,0.0035623,-0.29366,0.14926,0.0097852
12,0.008602,4.6936,0.0033772,-0.30491,0.15023,0.0087572
12,0.0090115,4.6725,0.0031937,-0.31939,0.15111,0.0081489
12,0.0093503,4.6555,0.0030062,-0.33704,0.15192,0.0079308
12,0.0096305,4.6419,0.0026185,-0.34506,0.15272,0.005495
12,0.0098361,4.6301,0.0022189,-0.3575,0.15327,0.0030845
12,0.0099139,4.6173,0.0018619,-0.37568,0.15358,0.001461
12,0.0099784,4.6001,0.0014811,-0.40014,0.15372,-0.00033755
12,0.010097,4.5759,0.0010937,-0.43066,0.15369,-0.0021434
12,0.01017,4.543,0.00069416,-0.46724,0.15347,-0.0039002
12,0.01019,4.5022,0.0002847,-0.51007,0.15308,-0.0055292
12,0.01018,4.4553,-0.00010011,-0.55889,0.15253,-0.0066304
12,0.010146,4.4038,-0.00046451,-0.61315,0.15187,-0.0073214
12,0.010078,4.3476,-0.00085152,-0.67318,0.15114,-0.0084809
12,0.0098775,4.2849,-0.0012178,-0.73969,0.15029,-0.0092632
12,0.0096587,4.2132,-0.0014944,-0.81244,0.14936,-0.0086665
12,0.0095171,4.1307,-0.001664,-0.88888,0.14849,-0.0067293
12,0.0093474,4.0367,-0.0018439,-0.9653,0.14782,-0.0056273
12,0.0091543,3.9323,-0.0021045,-1.0382,0.14726,-0.0065865
12,0.0089288,3.8195,-0.0023464,-1.1055,0.1466,-0.007698
12,0.0086764,3.7003,-0.0025597,-1.1673,0.14583,-0.0093432
12,0.0084018,3.5759,-0.002756,-1.225,0.1449,-0.011937
12,0.0080825,3.4462,-0.002938,-1.2797,0.1437,-0.014915
12,0.0076472,3.3092,-0.0030952,-1.3312,0.14221,-0.017986
12,0.007195,3.1625,-0.0031265,-1.3773,0.14041,-0.018371
12,0.0068472,3.0053,-0.0031459,-1.4154,0.13857,-0.01835
12,0.0065859,2.8395,-0.0032474,-1.4435,0.13674,-0.021254
12,0.0062907,2.6695,-0.0033314,-1.4606,0.13461,-0.024813
12,0.0058885,2.4994,-0.0033944,-1.4679,0.13213,-0.028186
12,0.0054768,2.332,-0.0034267,-1.4673,0.12931,-0.031546
12,0.0050705,2.1676,-0.0034337,-1.4606,0.12616,-0.035552
12,0.0046685,2.0054,-0.0034131,-1.4481,0.1226,-0.039078
12,0.0042701,1.8443,-0.0033566,-1.429,0.1187,-0.042044
12,0.0038879,1.6851,-0.0031849,-1.4016,0.11449,-0.038942
12,0.0036244,1.5303,-0.0029835,-1.3641,0.1106,-0.032823
12,0.0033669,1.3824,-0.0028828,-1.3155,0.10732,-0.034459
12,0.0030222,1.2438,-0.0028324,-1.2558,0.10387,-0.040481
12,0.0026845,1.1155,-0.0027446,-1.1867,0.099822,-0.045845
12,0.0023656,0.99642,-0.0025798,-1.1105,0.095237,-0.04921
12,0.0020754,0.88484,-0.0023909,-1.0297,0.090316,-0.052306
12,0.0018091,0.77917,-0.0021885,-0.94562,0.085086,-0.052769
12,0.0015756,0.67975,-0.0019816,-0.8582,0.079809,-0.05185
12,0.0013692,0.58819,-0.0017709,-0.76701,0.074624,-0.052141
12,0.0012775,0.50604,-0.0015572,-0.6723,0.06941,-0.052045
12,0.001228,0.43427,-0.0013935,-0.57563,0.064205,-0.053517
12,0.0010817,0.37417,-0.0012318,-0.47908,0.058854,-0.055816
12,0.00092115,0.32788,-0.001019,-0.38448,0.053272,-0.055286
12,0.00080153,0.29621,-0.00079693,-0.29282,0.047743,-0.053068
12,0.00072889,0.27843,-0.00058031,-0.20396,0.042437,-0.052474
12,0.00069513,0.27256,-0.00037478,-0.11733,0.037189,-0.05189
12,0.00069351,0.27642,-0.00017842,-0.032481,0.032,-0.048636
12,0.00070534,0.28895,-2.82E-06,0.049455,0.027137,-0.045614
12,0.00072829,0.31029,0.00015561,0.12675,0.022575,-0.042948
12,0.0007736,0.34055,0.00025377,0.19866,0.01828,-0.045798
12,0.00083741,0.37902,0.00032839,0.26525,0.013701,-0.051672
12,0.00090335,0.42425,0.00046252,0.32603,0.0085333,-0.049643
12,0.00098423,0.47485,0.00061296,0.37911,0.003569,-0.043649
12,0.0010906,0.52985,0.00073742,0.42298,-0.00079585,-0.038149
12,0.001205,0.58851,0.00082722,0.45744,-0.0046107,-0.033248
12,0.0013259,0.65019,0.00088834,0.48368,-0.0079355,-0.029135
12,0.0014522,0.7142,0.00092575,0.50326,-0.010849,-0.029897
12,0.0015699,0.77866,0.00095669,0.51669,-0.013839,-0.030795
12,0.0016805,0.8417,0.00098229,0.52342,-0.016918,-0.027101
12,0.001785,0.90336,0.00098281,0.51969,-0.019628,-0.023771
12,0.0018847,0.96477,0.00097072,0.51008,-0.022005,-0.020489
12,0.0020067,1.0262,0.00096244,0.49559,-0.024054,-0.016441
12,0.0021471,1.0861,0.0009438,0.47726,-0.025698,-0.013264
12,0.0022764,1.1422,0.00090125,0.45576,-0.027025,-0.011493
12,0.0023833,1.1933,0.0008532,0.4316,-0.028174,-0.0085225
12,0.0024718,1.2399,0.00080053,0.40521,-0.029026,-0.0054341
12,0.002545,1.2829,0.000744,0.37704,-0.02957,-0.0044496
12,0.0026187,1.3223,0.00069081,0.34813,-0.030015,-0.0039373
12,0.0026929,1.3571,0.00063555,0.31661,-0.030408,-0.0034037
12,0.0027392,1.3799,0.00061395,0.30082,-0.030749,-0.0031752
12,0.0027788,1.3992,0.00059267,0.28342,-0.031066,-0.0025748
12,0.0028282,1.4154,0.00055579,0.26394,-0.031324,-0.0030887
12,0.0028718,1.4294,0.0005028,0.24301,-0.031633,-0.0039705
12,0.0028931,1.4414,0.00045012,0.22184,-0.03203,-0.0043932
12,0.0029114,1.4517,0.00040587,0.20116,-0.032469,-0.0049721
12,0.0029269,1.4606,0.00036903,0.18077,-0.032966,-0.0048667
12,0.0029402,1.4683,0.00033878,0.15999,-0.033453,-0.00018903
12,0.0029515,1.4749,0.00030256,0.13872,-0.033472,0.0050153
12,0.0029515,1.4749,0.00030256,0.13872,-0.03297,0.0050153
13,0.0023205,5.9039,-0.017276,0.12825,0.16912,-0.079769
13,1.12E-05,5.9303,-0.017326,0.128,0.16114,-0.1255
13,-0.0018071,5.9565,-0.016801,0.12685,0.14859,-0.16186
13,-0.003206,5.9799,-0.015794,0.12606,0.1324,-0.19031
13,-0.004258,5.9997,-0.014389,0.1258,0.11337,-0.21229
13,-0.0050624,6.0158,-0.012667,0.12526,0.092143,-0.22879
13,-0.0056621,6.0289,-0.010729,0.12331,0.069264,-0.241
13,-0.006053,6.0396,-0.0085929,0.11913,0.045164,-0.24955
13,-0.0062973,6.0486,-0.0064111,0.11233,0.020209,-0.2563
13,-0.0064205,6.056,-0.0044547,0.10304,-0.0054201,-0.26398
13,-0.0064039,6.0621,-0.0028166,0.091737,-0.031818,-0.27288
13,-0.0062849,6.0671,-0.0014877,0.079221,-0.059107,-0.27875
13,-0.0061207,6.0713,-0.00042789,0.066795,-0.086982,-0.27538
13,-0.0059058,6.0747,0.00038967,0.05558,-0.11452,-0.26036
13,-0.0056359,6.0776,0.0010068,0.046111,-0.14056,-0.23134
13,-0.0053206,6.08,0.0014976,0.038423,-0.16369,-0.18707
13,-0.0049675,6.082,0.0018838,0.032201,-0.1824,-0.13414
13,-0.0045833,6.0836,0.0021376,0.027067,-0.19581,-0.080626
13,-0.0041602,6.0849,0.0023014,0.022701,-0.20387,-0.03206
13,-0.003718,6.0861,0.002404,0.018885,-0.20708,0.0083923
13,-0.0033127,6.0874,0.0024626,0.015518,-0.20624,0.041857
13,-0.0029643,6.0888,0.0025242,0.01262,-0.20205,0.070014
13,-0.0026628,6.0901,0.0026213,0.010217,-0.19505,0.093916
13,-0.0024266,6.0911,0.0027411,0.0082347,-0.18566,0.1141
13,-0.0022444,6.092,0.0028599,0.0065886,-0.17425,0.13118
13,-0.0020673,6.0927,0.0029714,0.0052268,-0.16113,0.14544
13,-0.0018945,6.0933,0.0030833,0.0041002,-0.14659,0.15726
13,-0.0017779,6.0938,0.0032022,0.0031814,-0.13086,0.16747
13,-0.0016945,6.094,0.0033138,0.0024345,-0.11412,0.17624
13,-0.0016124,6.0937,0.0034324,0.0017573,-0.096493,0.18364
13,-0.0014787,6.0931,0.0033558,0.00096606,-0.078128,0.18863
13,-0.0012364,6.0923,0.003321,0.00011443,-0.059265,0.19016
13,-0.0008781,6.0917,0.0033179,-0.00071453,-0.040249,0.18621
13,-0.0004237,6.0912,0.0033669,-0.00146,-0.021628,0.17816
13,8.38E-05,6.0908,0.003466,-0.0021327,-0.0038123,0.1669
13,0.00062215,6.0905,0.0035862,-0.00277,0.012878,0.15252
13,0.0011991,6.0902,0.0037329,-0.0034431,0.028129,0.13573
13,0.0018212,6.09,0.0039617,-0.0041193,0.041702,0.11751
13,0.0024674,6.0898,0.0042729,-0.0045088,0.053453,0.10029
13,0.0031468,6.0896,0.0042318,-0.0043805,0.063482,0.084671
13,0.0033989,6.0894,0.0043842,-0.0042777,0.07195,0.053345
13,0.0036778,6.089,0.0044932,-0.0040999,0.077284,0.047006
13,0.003973,6.0886,0.0045467,-0.0039694,0.081985,0.04141
13,0.0043071,6.0882,0.0045469,-0.0039073,0.086126,0.036485
13,0.0046875,6.0877,0.0045116,-0.003894,0.089774,0.032096
13,0.005105,6.0871,0.0044494,-0.0039295,0.092984,0.028297
13,0.0055714,6.0864,0.0043478,-0.0040157,0.095813,0.02508
13,0.0061456,6.0855,0.0041917,-0.0041566,0.098321,0.021853
13,0.0068513,6.085,0.0039853,-0.0043716,0.10051,0.018576
13,0.0068513,6.085,0.0039853,-0.0043716,0.10236,0.018576
14,0.022162,3.7537,0.0031003,0.31515,0.1911,-0.0011818
14,0.02264,3.8,0.0032788,0.32176,0.19098,-0.0019516
14,0.023061,3.8431,0.0033328,0.31851,0.19079,-0.0027222
14,0.023434,3.8828,0.0032757,0.30739,0.19051,-0.00351
14,0.023785,3.9196,0.0031572,0.29041,0.19016,-0.0038033
14,0.024097,3.9537,0.0030095,0.2689,0.18978,-0.0036706
14,0.024391,3.9855,0.002829,0.24351,0.18942,-0.0035804
14,0.024668,4.0143,0.0026143,0.21497,0.18906,-0.0035204
14,0.024912,4.0387,0.0023801,0.18447,0.18871,-0.0033258
14,0.025116,4.0572,0.0021505,0.15338,0.18837,-0.0029937
14,0.025262,4.0689,0.001915,0.12251,0.18807,-0.0052671
14,0.025768,4.1077,0.0014513,0.072766,0.18755,-0.0064701
14,0.026161,4.136,0.00088417,0.019921,0.1869,-0.0087881
14,0.02642,4.1534,0.00032363,-0.037167,0.18602,-0.010696
14,0.026582,4.1603,-0.00015493,-0.099609,0.18495,-0.010884
14,0.026676,4.1571,-0.00062704,-0.16845,0.18386,-0.010565
14,0.026688,4.1434,-0.0011676,-0.2435,0.18281,-0.010775
14,0.026606,4.1192,-0.001763,-0.32289,0.18173,-0.011528
14,0.026446,4.0858,-0.0023884,-0.40399,0.18058,-0.01292
14,0.026248,4.0452,-0.0030251,-0.48418,0.17928,-0.014955
14,0.025992,3.9988,-0.0036455,-0.56142,0.17779,-0.017095
14,0.025543,3.9456,-0.004457,-0.65139,0.17608,-0.019158
14,0.024829,3.8829,-0.005214,-0.73429,0.17416,-0.02159
14,0.024081,3.8085,-0.0058862,-0.80948,0.172,-0.02413
14,0.023475,3.7203,-0.0065016,-0.87725,0.16959,-0.027651
14,0.022843,3.6168,-0.0070764,-0.93814,0.16683,-0.032524
14,0.022056,3.4985,-0.0076047,-0.9924,0.16357,-0.03859
14,0.021142,3.3685,-0.0080746,-1.0403,0.15971,-0.045614
14,0.020136,3.2307,-0.0085028,-1.0827,0.15515,-0.053714
14,0.019066,3.0889,-0.0089163,-1.121,0.14978,-0.063296
14,0.017971,2.9461,-0.0092978,-1.1558,0.14345,-0.074014
14,0.016854,2.8049,-0.0095213,-1.1858,0.13605,-0.083076
14,0.015733,2.6674,-0.0094825,-1.2081,0.12774,-0.087557
14,0.014648,2.5344,-0.0094174,-1.2199,0.11899,-0.093381
14,0.013579,2.4058,-0.0095084,-1.2191,0.10965,-0.10659
14,0.012523,2.2808,-0.0095771,-1.204,0.09899,-0.12275
14,0.011479,2.1586,-0.0095023,-1.1749,0.086716,-0.1375
14,0.010457,2.0385,-0.0093088,-1.1346,0.072966,-0.15067
14,0.0094404,1.9203,-0.0090302,-1.0862,0.057899,-0.16278
14,0.0084152,1.8032,-0.0086748,-1.0321,0.041621,-0.17314
14,0.007396,1.6871,-0.0082754,-0.97469,0.024308,-0.18227
14,0.0065002,1.5739,-0.0078397,-0.91566,0.0060807,-0.19024
14,0.0058644,1.4668,-0.007374,-0.85664,-0.012943,-0.19663
14,0.0052463,1.3688,-0.0069032,-0.79867,-0.032606,-0.20172
14,0.0044586,1.2822,-0.0064084,-0.74185,-0.052778,-0.204
14,0.0036885,1.2089,-0.0059004,-0.68575,-0.073178,-0.20269
14,0.0030514,1.1487,-0.0053682,-0.6299,-0.093447,-0.19777
14,0.0025243,1.0992,-0.0048292,-0.57424,-0.11322,-0.19116
14,0.0020751,1.0584,-0.0042781,-0.51872,-0.13234,-0.18257
14,0.0017167,1.0246,-0.0037102,-0.46315,-0.1506,-0.17149
14,0.0014202,0.99668,-0.0031286,-0.40755,-0.16775,-0.15756
14,0.0011749,0.9736,-0.0025882,-0.35295,-0.1835,-0.1427
14,0.0009851,0.95408,-0.0021806,-0.3011,-0.19777,-0.13079
14,0.00084127,0.93707,-0.0017776,-0.25348,-0.21085,-0.11726
14,0.00076177,0.92212,-0.0012863,-0.21135,-0.22258,-0.097802
14,0.00072232,0.90932,-0.00079433,-0.17565,-0.23236,-0.075133
14,0.00074234,0.89875,-0.00036757,-0.14631,-0.23987,-0.053228
14,0.00079838,0.89007,5.23E-06,-0.12225,-0.2452,-0.032304
14,0.00088423,0.88289,0.00035311,-0.10238,-0.24843,-0.010992
14,0.00099474,0.87694,0.00065407,-0.085919,-0.24953,0.0091569
14,0.0011388,0.87203,0.00092279,-0.072361,-0.24861,0.028271
14,0.0013238,0.86796,0.0011648,-0.061146,-0.24578,0.046679
14,0.0015032,0.8646,0.0013848,-0.05144,-0.24111,0.06458
14,0.001691,0.86182,0.0015734,-0.042548,-0.23466,0.080583
14,0.0018859,0.85951,0.0017096,-0.03433,-0.2266,0.092606
14,0.0020998,0.85761,0.0018092,-0.027097,-0.21734,0.099423
14,0.0023162,0.85603,0.0018586,-0.021127,-0.2074,0.10268
14,0.0025348,0.85473,0.0018864,-0.016254,-0.19713,0.10679
14,0.0027814,0.85364,0.0018962,-0.012222,-0.18645,0.11008
14,0.0030248,0.85275,0.0018845,-0.008887,-0.17544,0.11163
14,0.0032658,0.85196,0.0018354,-0.0061279,-0.16428,0.11051
14,0.0035045,0.85131,0.0017619,-0.0038454,-0.15323,0.1077
14,0.0037547,0.8512,0.0016945,-0.0019572,-0.14246,0.1045
14,0.003988,0.85197,0.001619,-0.00039505,-0.13201,0.10023
14,0.004181,0.85346,0.0015368,0.00089724,-0.12198,0.095431
14,0.0043407,0.85513,0.0014424,0.0019663,-0.11244,0.089861
14,0.0044596,0.8565,0.0013512,0.0028507,-0.10345,0.084434
14,0.0045712,0.85756,0.001256,0.0035824,-0.09501,0.078454
14,0.0046766,0.85844,0.0011378,0.0042008,-0.087165,0.070936
14,0.0047638,0.85917,0.0010136,0.0046993,-0.080071,0.06313
14,0.0048097,0.85977,0.00089429,0.0051228,-0.073758,0.055757
14,0.0048476,0.86027,0.00077821,0.005474,-0.068182,0.048288
14,0.0048921,0.86068,0.00065093,0.0055481,-0.063354,0.039399
14,0.004929,0.86103,0.00053486,0.0051824,-0.059414,0.031677
14,0.0049594,0.86131,0.0004417,0.0044526,-0.056246,0.026196
14,0.0049846,0.86154,0.00036807,0.0036323,-0.053626,0.023721
14,0.0050187,0.86173,0.00031787,0.0029607,-0.051254,0.022761
14,0.0050468,0.86189,0.00026384,0.0024384,-0.048978,0.019483
14,0.0050569,0.86204,0.000205,0.0020067,-0.04703,0.015642
14,0.0050521,0.86215,0.00016139,0.0016424,-0.045466,0.012592
14,0.0050543,0.86221,0.00014576,0.0014115,-0.044206,0.0083636
14,0.005061,0.86226,0.00013279,0.0012129,-0.04337,0.0072676
14,0.0050566,0.8623,0.0001144,0.0010415,-0.042643,0.0060911
14,0.0050578,0.86233,9.85E-05,0.00089332,-0.042034,0.0053522
14,0.0050644,0.86237,8.48E-05,0.00076463,-0.041499,0.0047419
14,0.0050768,0.86239,7.28E-05,0.00065241,-0.041025,0.0039059
14,0.0050954,0.86242,5.23E-05,0.00055395,-0.040634,0.0024808
14,0.0050989,0.86244,3.32E-05,0.00046689,-0.040386,0.001477
14,0.0050866,0.86245,2.70E-05,0.00037715,-0.040238,0.0012678
14,0.0050866,0.86245,2.70E-05,0.00037715,-0.040112,0.0012678
15,-0.00097225,1.8167,-3.02E-05,0.0051321,0.082147,-0.0015659
15,-0.00096347,1.8175,-1.37E-05,0.0057561,0.081991,-0.0017613
15,-0.00098743,1.8182,-2.03E-06,0.0061035,0.081815,-0.0019233
15,-0.00099108,1.8188,-3.99E-06,0.0062656,0.081622,-0.0019841
15,-0.00098144,1.8194,-5.33E-06,0.0063126,0.081424,-0.0022381
15,-0.00098078,1.8199,2.55E-06,0.0062736,0.0812,-0.0028292
15,-0.00098616,1.8203,-6.35E-09,0.0060789,0.080917,-0.0039075
15,-0.00099556,1.8208,-9.61E-06,0.0056815,0.080526,-0.0052728
15,-0.00099291,1.8212,-9.27E-06,0.0053494,0.079999,-0.0063673
15,-0.00099578,1.8215,-8.93E-06,0.0058308,0.079362,-0.0071562
15,-0.0010025,1.8219,-1.52E-05,0.0081065,0.078647,-0.011274
15,-0.00098727,1.8231,-1.85E-05,0.01306,0.077519,-0.012754
15,-0.00097468,1.824,8.83E-07,0.021072,0.076244,-0.013349
15,-0.00097743,1.8249,-4.30E-06,0.031786,0.074909,-0.015062
15,-0.00097971,1.8256,-2.15E-05,0.044652,0.073403,-0.017505
15,-0.00096843,1.8261,-3.21E-05,0.059221,0.071652,-0.020106
15,-0.00097226,1.8264,-3.78E-05,0.075194,0.069642,-0.022416
15,-0.00098859,1.8264,-4.02E-05,0.092336,0.0674,-0.024759
15,-0.00098893,1.8264,-5.39E-05,0.11045,0.064924,-0.027478
15,-0.00098922,1.8278,-5.61E-05,0.12936,0.062176,-0.029596
15,-0.0010026,1.8329,-5.58E-05,0.14894,0.059217,-0.031719
15,-0.0010005,1.8436,-7.25E-05,0.16862,0.056045,-0.033786
15,-0.00098567,1.8603,-9.28E-05,0.18885,0.052666,-0.035922
15,-0.00099968,1.8824,-0.00010971,0.20954,0.049074,-0.038329
15,-0.0010244,1.9087,-0.00012367,0.23059,0.045241,-0.040237
15,-0.0010449,1.9383,-0.00014837,0.25195,0.041218,-0.041719
15,-0.0010619,1.9707,-0.00015565,0.27373,0.037046,-0.042117
15,-0.0010759,2.0054,-0.00014193,0.29602,0.032834,-0.040939
15,-0.0011006,2.0421,-0.00015032,0.31838,0.02874,-0.039665
15,-0.0011079,2.0802,-0.00016384,0.33936,0.024773,-0.038792
15,-0.001114,2.1197,-0.00016844,0.35673,0.020894,-0.03796
15,-0.0011322,2.1603,-0.00018541,0.36862,0.017098,-0.037217
15,-0.0011604,2.2018,-0.00020604,0.37452,0.013377,-0.036517
15,-0.0011969,2.2439,-0.00020335,0.37513,0.0097249,-0.034872
15,-0.001227,2.2867,-0.00018797,0.37152,0.0062377,-0.032582
15,-0.0012652,2.33,-0.00017525,0.36459,0.0029795,-0.029875
15,-0.0012836,2.3739,-0.00016472,0.35492,-8.00E-06,-0.027323
15,-0.0012724,2.4184,-0.00015601,0.34297,-0.0027403,-0.024724
15,-0.0012896,2.4631,-0.00014881,0.32914,-0.0052127,-0.021837
15,-0.0013169,2.5065,-0.00015601,0.31375,-0.0073964,-0.019803
15,-0.0013395,2.5464,-0.00016197,0.29707,-0.0093766,-0.017994
15,-0.0013714,2.5808,-0.00016031,0.27932,-0.011176,-0.015828
15,-0.0013977,2.6094,-0.00014578,0.26071,-0.012759,-0.013239
15,-0.0014064,2.6326,-0.0001206,0.24141,-0.014083,-0.010139
15,-0.0014004,2.6517,-9.98E-05,0.22137,-0.015097,-0.0076655
15,-0.0013954,2.6675,-7.60E-05,0.20033,-0.015863,-0.0051697
15,-0.0013913,2.6806,-5.63E-05,0.1781,-0.01638,-0.0029991
15,-0.0013879,2.6914,-2.68E-05,0.15495,-0.01668,-0.0018965
15,-0.0013982,2.7003,4.36E-05,0.13158,-0.01687,-0.0018227
15,-0.00142,2.7077,0.0001414,0.10906,-0.017052,-0.0011258
15,-0.0014379,2.7139,0.00025517,0.088494,-0.017165,0.0019494
15,-0.0014528,2.7189,0.00038878,0.070754,-0.01697,0.0056723
15,-0.0014519,2.7232,0.00053222,0.056065,-0.016402,0.0096003
15,-0.0014381,2.7268,0.00067062,0.044071,-0.015442,0.013409
15,-0.0014266,2.7295,0.00080486,0.034221,-0.014101,0.016929
15,-0.0014171,2.7307,0.00094882,0.026086,-0.012409,0.020124
15,-0.0013961,2.7301,0.0011008,0.019435,-0.010396,0.023245
15,-0.001326,2.7283,0.0013253,0.014005,-0.0080717,0.028051
15,-0.0012023,2.7263,0.0015504,0.0092627,-0.0052666,0.032658
15,-0.0010341,2.7246,0.0013485,0.0045434,-0.0020008,0.028477
15,-0.00082916,2.7234,0.00038505,-0.00048604,0.00084694,0.0085537
15,-0.00059381,2.7224,-0.0012148,-0.005476,0.0017023,-0.025324
15,-0.0003333,2.7215,-0.0029464,-0.0095251,-0.00083013,-0.062272
15,-6.51E-05,2.7208,-0.0043459,-0.011545,-0.0070573,-0.0923
15,0.00020935,2.7202,-0.0053918,-0.010288,-0.016287,-0.11418
15,0.00050224,2.7197,-0.0062111,-0.0048324,-0.027705,-0.13087
15,0.00081034,2.7194,-0.0068624,0.0044653,-0.040792,-0.14389
15,0.0012627,2.7194,-0.0074211,0.016165,-0.055181,-0.15436
15,0.0017027,2.7189,-0.0079029,0.029075,-0.070617,-0.16053
15,0.0012769,2.7168,-0.0083213,0.04323,-0.08667,-0.16491
15,-0.00066783,2.7129,-0.0086872,0.059296,-0.10316,-0.17076
15,-0.0038824,2.708,-0.0090096,0.077174,-0.12024,-0.17586
15,-0.0073447,2.7041,-0.0093684,0.095709,-0.13782,-0.18172
15,-0.01013,2.7037,-0.009685,0.11348,-0.156,-0.1868
15,-0.01221,2.7089,-0.0095587,0.12949,-0.17468,-0.18337
15,-0.013839,2.721,-0.0086447,0.14325,-0.19301,-0.16501
15,-0.015121,2.739,-0.0070067,0.15451,-0.20951,-0.13318
15,-0.016168,2.7606,-0.0052173,0.16339,-0.22283,-0.099704
15,-0.017008,2.7844,-0.0035396,0.17078,-0.2328,-0.069093
15,-0.017677,2.8111,-0.0011711,0.17799,-0.23971,-0.025393
15,-0.018203,2.842,0.00083918,0.19077,-0.24225,0.014067
15,-0.018613,2.8767,0.0043048,0.20578,-0.24084,0.082053
15,-0.01907,2.9129,0.0082503,0.22109,-0.23264,0.15856
15,-0.019435,2.9477,0.011712,0.23417,-0.21678,0.22467
15,-0.018908,2.9791,0.014629,0.24249,-0.19432,0.27908
15,-0.016787,3.0062,0.017266,0.24476,-0.16641,0.32693
15,-0.013203,3.0285,0.019723,0.24185,-0.13371,0.37078
15,-0.009172,3.0462,0.02212,0.2359,-0.096637,0.41298
15,-0.0053766,3.0604,0.024532,0.22772,-0.055339,0.45368
15,-0.0010653,3.0728,0.024867,0.21439,-0.0099702,0.45792
15,0.0010105,3.0944,0.026453,0.20942,0.035822,0.20399
15,0.0047271,3.1195,0.02815,0.20176,0.056221,0.22908
15,0.009156,3.1463,0.030074,0.19233,0.07913,0.25908
15,0.013294,3.172,0.032182,0.1826,0.10504,0.29354
15,0.017047,3.1939,0.033976,0.17382,0.13439,0.32363
15,0.020692,3.2105,0.034888,0.16692,0.16676,0.33899
15,0.024325,3.2227,0.034815,0.16262,0.20065,0.33726
15,0.028072,3.2324,0.034357,0.16141,0.23438,0.32958
15,0.032056,3.2399,0.03403,0.16314,0.26734,0.3253
15,0.032056,3.2399,0.03403,0.16314,0.29987,0.3253
16,0.015449,7.7016,0.00024923,-0.79988,0.14134,-0.022489
16,0.01565,7.6037,-4.23E-05,-0.83837,0.13909,-0.025461
16,0.01575,7.4969,-0.00033085,-0.87516,0.13655,-0.028761
16,0.015754,7.3854,-0.00060749,-0.90929,0.13367,-0.031919
16,0.015679,7.2741,-0.00086046,-0.93975,0.13048,-0.035141
16,0.015577,7.1658,-0.0010881,-0.96561,0.12697,-0.038782
16,0.015426,7.0601,-0.0013188,-0.98638,0.12309,-0.042824
16,0.015236,6.9555,-0.001553,-1.0023,0.11881,-0.047873
16,0.015013,6.8513,-0.0017503,-1.0146,0.11402,-0.052669
16,0.01475,6.7469,-0.0019204,-1.0247,0.10875,-0.056845
16,0.014466,6.6414,-0.0022797,-1.0187,0.10307,-0.061981
16,0.014178,6.5341,-0.0025572,-1.0053,0.096869,-0.065888
16,0.013862,6.425,-0.0027867,-0.98399,0.09028,-0.069658
16,0.013521,6.3154,-0.0029569,-0.95745,0.083314,-0.072858
16,0.013173,6.2069,-0.0030845,-0.93033,0.076029,-0.074634
16,0.012819,6.1016,-0.0032164,-0.9057,0.068565,-0.075939
16,0.012434,6.0016,-0.0033189,-0.88332,0.060971,-0.076793
16,0.012024,5.9084,-0.0033972,-0.86075,0.053292,-0.077176
16,0.011632,5.822,-0.0034553,-0.83543,0.045574,-0.076931
16,0.011255,5.7408,-0.0034771,-0.80552,0.037881,-0.076043
16,0.01089,5.6641,-0.0034885,-0.76994,0.030277,-0.074846
16,0.010536,5.593,-0.0035046,-0.72837,0.022792,-0.073571
16,0.010177,5.5289,-0.0034849,-0.6812,0.015435,-0.071929
16,0.0098406,5.4705,-0.0034358,-0.6295,0.0082424,-0.070669
16,0.0095097,5.4135,-0.0033688,-0.57455,0.0011755,-0.069066
16,0.0091438,5.3544,-0.0032805,-0.5176,-0.0057311,-0.066148
16,0.0087885,5.2934,-0.0031614,-0.45988,-0.012346,-0.062529
16,0.0084419,5.234,-0.0030102,-0.40246,-0.018599,-0.058041
16,0.0081025,5.1805,-0.0028456,-0.34608,-0.024403,-0.053268
16,0.0077954,5.1359,-0.0026765,-0.29101,-0.02973,-0.048546
16,0.0074887,5.1015,-0.0025104,-0.23756,-0.034584,-0.043475
16,0.0071692,5.0773,-0.0023268,-0.18652,-0.038932,-0.038025
16,0.0068917,5.0626,-0.0021092,-0.13824,-0.042734,-0.031841
16,0.0066489,5.0564,-0.0018765,-0.091101,-0.045918,-0.025998
16,0.006435,5.0578,-0.0016116,-0.042125,-0.048518,-0.021149
16,0.006258,5.0664,-0.0012872,0.010586,-0.050633,-0.016103
16,0.0061115,5.0818,-0.00094638,0.066051,-0.052243,-0.010806
16,0.0060036,5.1035,-0.00059207,0.12091,-0.053324,-0.0055079
16,0.0059406,5.1298,-0.00018708,0.17161,-0.053875,3.05E-05
16,0.0059016,5.1588,0.00024009,0.21594,-0.053872,0.0056952
16,0.0058694,5.189,0.00047502,0.25348,-0.053302,0.0092359
16,0.0058822,5.22,0.00012315,0.28519,-0.052379,0.0067477
16,0.0059586,5.2525,-0.001188,0.31239,-0.051704,-0.0053408
16,0.0060876,5.2883,-0.0035033,0.33617,-0.052238,-0.026743
16,0.0062865,5.3292,-0.0066493,0.35697,-0.054912,-0.056625
16,0.0065695,5.3756,-0.010463,0.37437,-0.060575,-0.093253
16,0.0068957,5.4255,-0.014815,0.38744,-0.0699,-0.1341
16,0.0072577,5.4759,-0.019627,0.39552,-0.08331,-0.17882
16,0.0077283,5.5237,-0.024832,0.39927,-0.10119,-0.22692
16,0.0082756,5.5677,-0.030348,0.4006,-0.12388,-0.27759
17,0.0087423,4.4284,-0.00061179,-0.40536,0.00059456,-0.00075026
17,0.0087365,4.4062,-0.0006483,-0.40856,0.00051953,-0.0012411
17,0.0087164,4.372,-0.00068607,-0.40821,0.00039542,-0.0015738
17,0.0086676,4.3298,-0.00074389,-0.40389,0.00023805,-0.0022729
17,0.0086012,4.2837,-0.00080392,-0.39602,1.08E-05,-0.0030786
17,0.0085248,4.2363,-0.00086402,-0.38563,-0.0002971,-0.003936
17,0.0084597,4.1889,-0.00091465,-0.37399,-0.0006907,-0.0046798
17,0.0083881,4.1424,-0.00097329,-0.36196,-0.0011587,-0.0054304
17,0.0082989,4.0981,-0.0010144,-0.34944,-0.0017017,-0.0058652
17,0.0082128,4.0577,-0.00099401,-0.33534,-0.0022882,-0.0054189
17,0.0081305,4.023,-0.00098342,-0.31864,-0.0028301,-0.0073719
17,0.0080291,3.979,-0.0010655,-0.30261,-0.0035673,-0.008202
17,0.007919,3.9385,-0.001139,-0.27502,-0.0043875,-0.009256
17,0.0077752,3.9033,-0.0011902,-0.23844,-0.0053131,-0.010252
17,0.0076168,3.874,-0.0012262,-0.19585,-0.0063383,-0.011187
17,0.0074462,3.85,-0.0012452,-0.14928,-0.007457,-0.011965
17,0.0072788,3.83,-0.0012731,-0.099736,-0.0086535,-0.012915
17,0.0070877,3.8131,-0.0013071,-0.048555,-0.0099451,-0.013962
17,0.0069164,3.7994,-0.0013663,0.0015599,-0.011341,-0.015299
17,0.0068537,3.7913,-0.0014157,0.047219,-0.012871,-0.016251
17,0.0067754,3.7911,-0.0014181,0.085102,-0.014496,-0.016377
17,0.0066054,3.801,-0.0014233,0.12098,-0.016134,-0.01646
17,0.0064385,3.822,-0.0014275,0.14787,-0.01778,-0.016585
17,0.0062872,3.8529,-0.0014113,0.16528,-0.019438,-0.016214
17,0.0061489,3.892,-0.0013847,0.17358,-0.02106,-0.015495
17,0.0060344,3.9377,-0.0013429,0.1734,-0.022609,-0.014589
17,0.0059135,3.9895,-0.0013545,0.16503,-0.024068,-0.013623
17,0.0057739,4.0453,-0.0013508,0.14845,-0.02543,-0.010886
17,0.0055663,4.1012,-0.0013149,0.12298,-0.026519,-0.0070426
17,0.0053814,4.1521,-0.0013313,0.087352,-0.027223,-0.0040165
17,0.0052942,4.1932,-0.0013448,0.041175,-0.027625,0.00023088
17,0.0051826,4.221,-0.0013231,-0.015333,-0.027602,0.006724
17,0.005064,4.2343,-0.0012986,-0.081515,-0.026929,0.014813
17,0.0049527,4.2339,-0.0012783,-0.15605,-0.025448,0.02427
17,0.0048475,4.2211,-0.0012681,-0.23788,-0.023021,0.035019
17,0.0047604,4.1968,-0.001286,-0.32684,-0.019519,0.046701
17,0.0045699,4.1601,-0.0013008,-0.4228,-0.014849,0.059771
17,0.004386,4.11,-0.0012933,-0.52375,-0.0088721,0.07465
17,0.0042865,4.0454,-0.0012147,-0.6249,-0.0014071,0.091997
17,0.004191,3.966,-0.0011562,-0.72111,0.0077925,0.11003
17,0.0040857,3.8735,-0.0011868,-0.80819,0.018796,0.12778
17,0.0039591,3.7704,-0.001199,-0.88371,0.031574,0.14717
17,0.0038412,3.659,-0.0012157,-0.94774,0.046291,0.16799
17,0.0037306,3.5408,-0.001236,-1.0016,0.063089,0.19019
17,0.0036127,3.4162,-0.0012463,-1.0467,0.082108,0.21435
17,0.0034625,3.2841,-0.0012613,-1.0836,0.10354,0.24092
17,0.0033119,3.1439,-0.0011685,-1.1108,0.12763,0.27017
17,0.0031874,2.9978,-0.0010785,-1.1267,0.15465,0.29717
17,0.003137,2.8514,-0.0010765,-1.1299,0.18437,0.32143
17,0.0030689,2.7099,-0.0010814,-1.1197,0.21651,0.34607
18,-0.046256,6.9315,0.00063898,-0.34689,0.12028,-0.087093
18,-0.047553,6.9314,0.0010074,-0.39022,0.11157,-0.077076
18,-0.048925,6.9284,0.0016966,-0.42974,0.10386,-0.064062
18,-0.050308,6.9178,0.0025716,-0.4658,0.097459,-0.055217
18,-0.051139,6.8969,0.0035552,-0.49873,0.091937,-0.058101
18,-0.051093,6.8644,0.0045792,-0.52881,0.086127,-0.073382
18,-0.050426,6.82,0.0056083,-0.55634,0.078789,-0.092778
18,-0.049442,6.7663,0.0066276,-0.58158,0.069511,-0.10574
18,-0.048273,6.7074,0.0076134,-0.60473,0.058936,-0.10816
18,-0.046983,6.6462,0.0085648,-0.62606,0.048121,-0.10009
18,-0.045617,6.5846,0.0094822,-0.6459,0.038112,-0.21167
18,-0.045148,6.5023,0.011527,-0.69752,0.016945,-0.17613
18,-0.04422,6.4159,0.013704,-0.74713,-0.00066893,-0.14161
18,-0.042913,6.326,0.015964,-0.79064,-0.01483,-0.10762
18,-0.041279,6.2333,0.017829,-0.82506,-0.025592,-0.078004
18,-0.039387,6.1383,0.018971,-0.84844,-0.033393,-0.055407
18,-0.037283,6.0414,0.019563,-0.85974,-0.038934,-0.038839
18,-0.034989,5.9429,0.019836,-0.86031,-0.042817,-0.02638
18,-0.032552,5.843,0.019892,-0.85332,-0.045455,-0.016571
18,-0.029983,5.742,0.019776,-0.84133,-0.047113,-0.0090458
18,-0.027291,5.6397,0.019517,-0.82594,-0.048017,-0.0036896
18,-0.024499,5.5364,0.019627,-0.79749,-0.048386,0.00059202
18,-0.021518,5.4342,0.019449,-0.7648,-0.048327,0.00072845
18,-0.01838,5.3366,0.019031,-0.72859,-0.048254,0.0012991
18,-0.015482,5.2468,0.018409,-0.68946,-0.048124,0.0089464
18,-0.01315,5.1675,0.017625,-0.64792,-0.047229,0.026538
18,-0.0113,5.1005,0.016706,-0.60439,-0.044576,0.049571
18,-0.0097691,5.0457,0.015676,-0.5592,-0.039619,0.0695
18,-0.0084897,5.0007,0.014561,-0.51266,-0.032669,0.081147
18,-0.0074313,4.9635,0.013356,-0.46496,-0.024554,0.082264
18,-0.0065821,4.9328,0.012069,-0.4161,-0.016327,0.074943
18,-0.0058927,4.9073,0.010721,-0.36633,-0.0088332,0.063283
18,-0.0053223,4.8862,0.0092708,-0.31689,-0.0025049,0.0502
18,-0.0048505,4.8688,0.0077616,-0.26969,0.0025151,0.036323
18,-0.0044602,4.8544,0.0064144,-0.22635,0.0061474,0.023671
18,-0.0041373,4.8425,0.0053854,-0.18807,0.0085145,0.013375
18,-0.0038702,4.8326,0.0046197,-0.15573,0.009852,0.0059718
18,-0.003636,4.8244,0.0040324,-0.12922,0.010449,0.0014977
18,-0.0034292,4.8177,0.0035859,-0.1075,0.010599,-0.0013703
18,-0.0032712,4.8121,0.0032693,-0.089541,0.010462,-0.0029229
18,-0.0031537,4.8075,0.0030797,-0.074575,0.01017,-0.0030529
18,-0.0030564,4.8037,0.0029821,-0.061996,0.0098643,-0.0020628
18,-0.002976,4.8004,0.002954,-0.05163,0.0096581,-0.00011432
18,-0.0028568,4.7972,0.0029768,-0.043989,0.0096466,0.0024301
18,-0.0026529,4.7941,0.0030483,-0.040102,0.0098896,0.0054303
18,-0.002379,4.7914,0.0031667,-0.040823,0.010433,0.0091502
18,-0.0020602,4.7891,0.0033107,-0.046255,0.011348,0.013267
18,-0.0017043,4.7873,0.0034562,-0.055817,0.012674,0.017431
18,-0.0013178,4.7857,0.0036095,-0.068689,0.014417,0.021829
18,-0.00089276,4.7845,0.0037889,-0.084208,0.0166,0.026758
18,-0.00042267,4.7836,0.00399,-0.10195,0.019276,0.03201
18,7.15E-05,4.7833,0.0042024,-0.1215,0.022477,0.037322
18,0.00058564,4.783,0.0044242,-0.14233,0.026209,0.042232
18,0.0011031,4.7808,0.0046011,-0.164,0.030432,0.045859
18,0.0016365,4.7742,0.0046882,-0.18638,0.035018,0.047909
18,0.0021962,4.7608,0.004701,-0.20953,0.039809,0.0492
18,0.0027513,4.7401,0.004659,-0.23357,0.044729,0.049488
18,0.0032764,4.7128,0.0045781,-0.25837,0.049678,0.048212
18,0.0037897,4.6803,0.0044586,-0.28375,0.054499,0.04609
18,0.0043065,4.6437,0.0042939,-0.30962,0.059108,0.04304
18,0.0048262,4.6036,0.0040853,-0.33608,0.063412,0.039109
18,0.0053483,4.5607,0.0038535,-0.36325,0.067323,0.034686
18,0.0058723,4.5157,0.0036025,-0.39052,0.070792,0.029639
18,0.0063453,4.4692,0.0033488,-0.41608,0.073756,0.024269
18,0.0067234,4.4214,0.0030796,-0.43722,0.076183,0.01856
18,0.007023,4.3723,0.0027846,-0.4517,0.078038,0.012151
18,0.0072578,4.3219,0.0024945,-0.45888,0.079254,0.0054297
18,0.007452,4.2705,0.0022216,-0.45955,0.079797,-0.0012233
18,0.0075994,4.2182,0.0019497,-0.45505,0.079674,-0.0080786
18,0.0076951,4.1652,0.0016787,-0.44646,0.078866,-0.015086
18,0.007748,4.1115,0.0014085,-0.43446,0.077358,-0.022163
18,0.0077785,4.0568,0.0011389,-0.41963,0.075141,-0.029133
18,0.0077906,4.0019,0.0008698,-0.40255,0.072228,-0.035425
18,0.0078006,3.9487,0.00062085,-0.38376,0.068686,-0.040688
18,0.0077958,3.8998,0.00041489,-0.36356,0.064617,-0.044594
18,0.0077654,3.8574,0.00024452,-0.3421,0.060157,-0.04775
18,0.0077403,3.8223,0.00010357,-0.31946,0.055382,-0.050143
18,0.0077195,3.7937,-2.62E-05,-0.29584,0.050368,-0.051893
18,0.0076892,3.7702,-0.00013355,-0.27144,0.045179,-0.053329
18,0.007664,3.7508,-0.00021578,-0.24638,0.039846,-0.053837
18,0.0076433,3.7347,-0.00025593,-0.2204,0.034462,-0.053175
18,0.0076261,3.7215,-0.00028568,-0.19385,0.029145,-0.052137
18,0.0076119,3.7106,-0.00030721,-0.16707,0.023931,-0.050655
18,0.007587,3.7017,-0.00032902,-0.14099,0.018865,-0.048843
18,0.0075532,3.6942,-0.00034508,-0.117,0.013981,-0.046703
18,0.0075121,3.6881,-0.00035057,-0.096249,0.0093108,-0.044314
18,0.0074649,3.683,-0.00036143,-0.07905,0.0048795,-0.041629
18,0.0073996,3.6788,-0.00036701,-0.065006,0.00071657,-0.038651
18,0.0073323,3.6753,-0.00036047,-0.053462,-0.0031485,-0.035327
18,0.0072636,3.6725,-0.00034791,-0.043742,-0.0066812,-0.031622
18,0.0072361,3.6707,-0.00035529,-0.037587,-0.0098434,-0.020098
18,0.0072071,3.6691,-0.00036549,-0.032326,-0.011853,-0.01825
18,0.0071762,3.6678,-0.00037862,-0.027838,-0.013678,-0.016546
18,0.0071426,3.6667,-0.00038671,-0.023977,-0.015333,-0.014991
18,0.0071056,3.6657,-0.00038997,-0.020625,-0.016832,-0.013752
18,0.0070643,3.6649,-0.00038847,-0.01771,-0.018207,-0.012498
18,0.0070174,3.6642,-0.00038207,-0.015172,-0.019457,-0.011374
18,0.0069855,3.6637,-0.00035945,-0.012942,-0.020594,-0.010175
18,0.0069682,3.6633,-0.00033102,-0.010953,-0.021612,-0.008576
18,0.0069682,3.6633,-0.00033102,-0.010953,-0.022469,-0.008576
19,-0.00098545,4.326,0.00029678,0.094676,0.0066228,0.0013103
19,-0.00098944,4.3415,0.00050956,0.10334,0.0067538,0.0030437
19,-0.00099988,4.3555,0.00071472,0.10998,0.0070582,0.0048176
19,-0.00099391,4.3681,0.00092983,0.11362,0.0075399,0.006788
19,-0.00097741,4.3796,0.0011555,0.11458,0.0082187,0.0090434
19,-0.00097187,4.3902,0.0013742,0.11378,0.0091231,0.011183
19,-0.00097382,4.3999,0.0015835,0.11197,0.010241,0.013188
19,-0.00098084,4.4077,0.0017821,0.10952,0.01156,0.015051
19,-0.00096196,4.4134,0.0019622,0.10667,0.013065,0.016685
19,-0.00086997,4.4173,0.0021331,0.10359,0.014734,0.018208
19,-0.00068867,4.4207,0.0022946,0.1004,0.016555,0.024504
19,-0.00042494,4.4397,0.0025711,0.094331,0.019005,0.028326
19,-0.00012779,4.458,0.002856,0.088714,0.021838,0.032143
19,0.00022333,4.4738,0.0031305,0.083516,0.025052,0.035748
19,0.00063226,4.4865,0.0034044,0.078706,0.028627,0.039293
19,0.0010758,4.4967,0.0036877,0.074099,0.032556,0.043061
19,0.0015481,4.5052,0.003978,0.069841,0.036862,0.04698
19,0.0020441,4.5122,0.0042735,0.066789,0.04156,0.050627
19,0.0025465,4.5181,0.0045451,0.065504,0.046623,0.053548
19,0.0030675,4.5229,0.0047448,0.065585,0.051978,0.054917
19,0.0036038,4.5269,0.0048574,0.065962,0.05747,0.054664
19,0.0041527,4.5302,0.0048936,0.058202,0.062936,0.053491
19,0.0047121,4.5329,0.0048841,0.050419,0.068285,0.051369
19,0.005267,4.5351,0.0048237,0.043698,0.073422,0.048293
19,0.0058314,4.537,0.0047144,0.038275,0.078251,0.044253
19,0.0064036,4.5384,0.0045713,0.033803,0.082676,0.039595
19,0.0069822,4.5396,0.0044069,0.029965,0.086636,0.035418
19,0.0075662,4.5413,0.0042183,0.026928,0.090178,0.0308
19,0.0081283,4.5444,0.0040095,0.025357,0.093258,0.020232
19,0.0086196,4.5485,0.0037908,0.026261,0.095281,-0.00027587
19,0.0090261,4.5527,0.0035704,0.030504,0.095253,-0.028858
19,0.0093623,4.5561,0.0033419,0.038364,0.092368,-0.059113
19,0.0096405,4.5589,0.0031069,0.049526,0.086456,-0.085388
19,0.0098706,4.5611,0.0028664,0.063347,0.077917,-0.10741
19,0.010061,4.563,0.0026082,0.079295,0.067176,-0.12697
19,0.010219,4.5643,0.002342,0.09695,0.054479,-0.14431
19,0.010362,4.5651,0.0020691,0.11551,0.040048,-0.15975
19,0.010481,4.5661,0.0017906,0.13391,0.024074,-0.17315
19,0.010566,4.5688,0.0015208,0.15177,0.006759,-0.18409
19,0.010649,4.5754,0.0012845,0.17001,-0.01165,-0.19247
19,0.010745,4.5879,0.0010823,0.1902,-0.030897,-0.19865
19,0.010837,4.6069,0.00091514,0.21332,-0.050762,-0.20297
19,0.010926,4.6319,0.00078997,0.23924,-0.071059,-0.20561
19,0.011,4.6618,0.00069301,0.26735,-0.09162,-0.20701
19,0.011048,4.6956,0.00061937,0.29721,-0.11232,-0.20739
19,0.011088,4.7323,0.00056504,0.32883,-0.13306,-0.20687
19,0.01112,4.7706,0.00051351,0.36215,-0.15375,-0.20759
19,0.011148,4.8091,0.00046429,0.39598,-0.17451,-0.20785
19,0.01117,4.8479,0.00041042,0.42773,-0.19529,-0.19687
19,0.011189,4.8885,0.00033295,0.45426,-0.21498,-0.16694
19,0.011191,4.933,0.00022279,0.47374,-0.23167,-0.12185
19,0.011193,4.9828,9.88E-05,0.48651,-0.24386,-0.073958
19,0.01122,5.0373,-3.02E-05,0.49417,-0.25125,-0.033967
19,0.011257,5.0959,-0.00015658,0.49821,-0.25465,-0.00227
19,0.0113,5.1574,-0.00026774,0.49893,-0.25488,0.024484
19,0.011349,5.222,-0.00037943,0.49609,-0.25243,0.047011
19,0.011389,5.2894,-0.00049158,0.49037,-0.24773,0.066006
19,0.011409,5.3581,-0.0006041,0.48342,-0.24113,0.081853
19,0.011386,5.4242,-0.00072351,0.4764,-0.23294,0.094612
19,0.011315,5.4839,-0.00085519,0.46819,-0.22348,0.10474
19,0.01119,5.5354,-0.0010234,0.45551,-0.21301,0.11254
19,0.011034,5.5799,-0.0011822,0.4356,-0.20175,0.11872
19,0.010866,5.6203,-0.0013071,0.40726,-0.18988,0.1239
19,0.010687,5.6582,-0.0014367,0.37065,-0.17749,0.12827
19,0.010512,5.6934,-0.0015834,0.32697,-0.16466,0.1316
19,0.010329,5.7245,-0.0017508,0.27719,-0.1515,0.13386
19,0.010137,5.7513,-0.0019222,0.22211,-0.13812,0.13646
19,0.0099393,5.776,-0.0020838,0.16358,-0.12447,0.13887
19,0.009723,5.8007,-0.0022043,0.1048,-0.11058,0.13622
19,0.0094782,5.8248,-0.0022776,0.049035,-0.096962,0.12445
19,0.0091441,5.8441,-0.0023054,-0.0026454,-0.084517,0.10544
19,0.0088282,5.854,-0.0023086,-0.05171,-0.073973,0.085249
19,0.0086063,5.8519,-0.0023113,-0.10047,-0.065448,0.068882
19,0.0083833,5.8371,-0.0023003,-0.15021,-0.05856,0.056709
19,0.008133,5.8114,-0.0022781,-0.20013,-0.052889,0.04713
19,0.007847,5.7764,-0.0022268,-0.2482,-0.048176,0.039709
19,0.0075445,5.7337,-0.0021383,-0.2933,-0.044205,0.03412
19,0.0072417,5.6852,-0.0020125,-0.33653,-0.040793,0.030214
19,0.006978,5.6338,-0.0018491,-0.38,-0.037771,0.028034
19,0.0067598,5.582,-0.0016482,-0.42392,-0.034968,0.027205
19,0.0065794,5.5301,-0.0014302,-0.45642,-0.032248,0.026289
19,0.0064169,5.4765,-0.0012319,-0.48445,-0.029619,0.025944
19,0.006243,5.4193,-0.0011365,-0.50503,-0.027024,0.025031
19,0.006086,5.3578,-0.0010463,-0.51658,-0.024521,0.024077
19,0.0059561,5.2932,-0.00093129,-0.51979,-0.022114,0.023848
19,0.005875,5.2281,-0.00077798,-0.51607,-0.019729,0.024555
19,0.0058605,5.1647,-0.00060551,-0.50671,-0.017273,0.0257
19,0.0059143,5.1029,-0.0004209,-0.49303,-0.014703,0.026956
19,0.0060247,5.0407,-0.00024225,-0.47665,-0.012008,0.027849
19,0.0061818,4.977,-0.00013317,-0.45073,-0.0092229,0.026997
19,0.0062836,4.9312,-4.52E-05,-0.44712,-0.0065231,0.013819
19,0.0063644,4.8851,4.25E-05,-0.44219,-0.0051413,0.014422
19,0.0063334,4.8418,0.00014734,-0.43458,-0.0036991,0.015154
19,0.0062907,4.804,0.00025468,-0.42331,-0.0021836,0.015861
19,0.0062704,4.7718,0.00035825,-0.40844,-0.00059756,0.016467
19,0.006291,4.7442,0.00044179,-0.39111,0.0010491,0.016902
19,0.0063335,4.7202,0.0004869,-0.37244,0.0027393,0.017066
19,0.0063999,4.6991,0.00048261,-0.35199,0.0044459,0.016666
19,0.0064935,4.6805,0.00042617,-0.32741,0.0061125,0.015275
19,0.0064935,4.6805,0.00042617,-0.32741,0.00764,0.015275
20,0.0095386,4.5773,-0.00079284,-0.2396,-0.0019971,0.0048232
20,0.00949,4.5782,-0.00087361,-0.26951,-0.0015148,0.006404
20,0.0094296,4.5781,-0.00094962,-0.29696,-0.0008744,0.0048562
20,0.0092215,4.5731,-0.0010206,-0.32237,-0.00038878,0.0025735
20,0.0090354,4.5602,-0.0010959,-0.34584,-0.00013144,0.00092081
20,0.0090086,4.5377,-0.0011724,-0.36728,-3.94E-05,-0.0004895
20,0.0089906,4.5058,-0.001248,-0.38689,-8.83E-05,-0.001622
20,0.008948,4.4671,-0.0013215,-0.40536,-0.00025051,-0.0025362
20,0.0088893,4.4247,-0.0013921,-0.42372,-0.00050413,-0.0033469
20,0.0088205,4.3811,-0.0014594,-0.44255,-0.00083882,-0.003894
20,0.0087458,4.3377,-0.0015233,-0.46138,-0.0012282,-0.0062554
20,0.0085776,4.2809,-0.0016385,-0.5035,-0.0018538,-0.0066902
20,0.0083991,4.221,-0.00175,-0.54479,-0.0025228,-0.0069227
20,0.0082119,4.1582,-0.001783,-0.58299,-0.003215,-0.0062109
20,0.0080043,4.0931,-0.0018164,-0.61675,-0.0038361,-0.0056296
20,0.00778,4.0264,-0.0019339,-0.64546,-0.0043991,-0.0063904
20,0.0075418,3.9583,-0.0020596,-0.66899,-0.0050381,-0.0074422
20,0.0072921,3.8882,-0.0021629,-0.6878,-0.0057823,-0.0085067
20,0.0070328,3.8146,-0.0022498,-0.70251,-0.006633,-0.0096001
20,0.0067657,3.7365,-0.0023312,-0.71416,-0.007593,-0.012502
20,0.0064921,3.6546,-0.0024095,-0.72372,-0.0088433,-0.018638
20,0.0062131,3.5712,-0.0024276,-0.72443,-0.010707,-0.023669
20,0.0059296,3.4885,-0.0024361,-0.72096,-0.013074,-0.024206
20,0.0056556,3.4071,-0.0024299,-0.71254,-0.015495,-0.022704
20,0.0054027,3.3267,-0.0023853,-0.69915,-0.017765,-0.021082
20,0.0051407,3.2467,-0.0023221,-0.68158,-0.019873,-0.019359
20,0.0048714,3.1678,-0.00225,-0.66064,-0.021809,-0.018023
20,0.0046222,3.0915,-0.0021641,-0.63614,-0.023611,-0.016767
20,0.0043898,3.0197,-0.0020667,-0.60684,-0.025288,-0.015413
20,0.004158,2.9528,-0.0019532,-0.57192,-0.026829,-0.014284
20,0.0039268,2.8903,-0.0018264,-0.53251,-0.028258,-0.013254
20,0.0037224,2.832,-0.0016952,-0.49113,-0.029583,-0.012142
20,0.0035269,2.779,-0.0015538,-0.44954,-0.030797,-0.010981
20,0.0033521,2.7331,-0.0013709,-0.40717,-0.031896,-0.009158
20,0.0032337,2.6948,-0.0012065,-0.36228,-0.032811,-0.0074903
20,0.0031358,2.6632,-0.0010771,-0.31333,-0.03356,-0.0064083
20,0.0030417,2.637,-0.00094371,-0.2602,-0.034201,-0.0053123
20,0.0029638,2.6159,-0.00082019,-0.20501,-0.034732,-0.0041548
20,0.0028994,2.6009,-0.00070484,-0.1505,-0.035148,-0.0042031
20,0.0028592,2.5926,-0.0005831,-0.09808,-0.035568,-0.0029714
20,0.0028392,2.5895,-0.00044947,-0.047859,-0.035865,0.0086475
20,0.0028226,2.589,-0.00033893,-2.09E-05,-0.035001,0.033377
20,0.0028221,2.5895,-0.00022774,0.044134,-0.031663,0.066595
20,0.0029137,2.5928,-0.00011601,0.082782,-0.025003,0.10118
20,0.0029896,2.6021,-4.33E-05,0.11508,-0.014885,0.12981
20,0.0029865,2.6201,1.68E-05,0.14162,-0.0019046,0.15234
20,0.002984,2.6474,7.31E-05,0.16362,0.01333,0.17158
20,0.0029819,2.6815,0.00011315,0.18175,0.030488,0.18786
20,0.0029801,2.7187,0.00013967,0.19539,0.049274,0.20148
20,0.0029918,2.7566,0.00014845,0.2031,0.069421,0.21313
21,0.0071144,5.6492,0.0038401,0.041475,0.073345,0.020415
21,0.0077545,5.6641,0.0036135,0.025824,0.075386,0.015414
21,0.0083894,5.677,0.0033989,0.0095864,0.076928,0.010452
21,0.0089936,5.6881,0.003185,-0.0071021,0.077973,0.0049731
21,0.0094934,5.6964,0.0029804,-0.024119,0.07847,-0.00035378
21,0.0098805,5.7004,0.0027872,-0.041382,0.078435,-0.0054313
21,0.010201,5.6991,0.0025749,-0.058835,0.077892,-0.010895
21,0.010439,5.6923,0.0023635,-0.076442,0.076802,-0.016512
21,0.010637,5.6807,0.0021673,-0.094144,0.075151,-0.021922
21,0.010813,5.6655,0.0019774,-0.11189,0.072959,-0.027256
21,0.01092,5.6472,0.0015964,-0.13603,0.070233,-0.034547
21,0.010968,5.6264,0.0012153,-0.15909,0.066779,-0.040925
21,0.010982,5.6035,0.0008343,-0.18145,0.062686,-0.046038
21,0.010968,5.5789,0.00045328,-0.20299,0.058082,-0.050241
21,0.010942,5.5528,0.00012491,-0.22269,0.053058,-0.053305
21,0.010895,5.5255,-0.00013358,-0.239,0.047728,-0.055196
21,0.010803,5.4972,-0.000354,-0.2507,0.042208,-0.056227
21,0.010688,5.4681,-0.00053635,-0.2575,0.036585,-0.056501
21,0.010566,5.4383,-0.00071353,-0.25998,0.030935,-0.056436
21,0.010439,5.408,-0.00089958,-0.25906,0.025292,-0.056168
21,0.010307,5.3772,-0.0010469,-0.25549,0.019675,-0.055367
21,0.010185,5.3459,-0.0011622,-0.2498,0.014138,-0.055026
21,0.010058,5.3141,-0.0012642,-0.24238,0.0086356,-0.054342
21,0.0099001,5.2821,-0.0013617,-0.23338,0.0032014,-0.052394
21,0.0097432,5.251,-0.0014687,-0.22243,-0.002038,-0.050292
21,0.0096134,5.2224,-0.0015572,-0.20876,-0.0070672,-0.047954
21,0.0094928,5.1977,-0.0016173,-0.19175,-0.011863,-0.045154
21,0.0093668,5.1773,-0.0016604,-0.17132,-0.016378,-0.04211
21,0.0092098,5.1608,-0.0016961,-0.1479,-0.020589,-0.038897
21,0.0090142,5.1473,-0.0017388,-0.12211,-0.024479,-0.035894
21,0.008826,5.1362,-0.0017806,-0.094425,-0.028068,-0.033209
21,0.008644,5.1268,-0.0018284,-0.065118,-0.031389,-0.030736
21,0.008454,5.1188,-0.001868,-0.034404,-0.034463,-0.028532
21,0.0082441,5.1121,-0.0018875,-0.002644,-0.037316,-0.026428
21,0.0080047,5.1079,-0.0019169,0.02946,-0.039958,-0.024823
21,0.0077803,5.108,-0.0019609,0.060975,-0.042441,-0.023566
21,0.0075684,5.1137,-0.0020105,0.091093,-0.044797,-0.022494
21,0.0073667,5.1255,-0.0020515,0.11944,-0.047047,-0.021621
21,0.0071735,5.1425,-0.0020657,0.14614,-0.049209,-0.020588
21,0.0069611,5.1637,-0.0020511,0.17156,-0.051268,-0.019352
21,0.0067458,5.1883,-0.0020258,0.19606,-0.053203,-0.01806
21,0.0065283,5.2157,-0.0019918,0.22001,-0.055009,-0.01625
21,0.006322,5.2453,-0.0019373,0.24357,-0.056634,-0.014143
21,0.006125,5.2768,-0.0018462,0.26643,-0.058048,-0.012175
21,0.0059094,5.3099,-0.001705,0.28741,-0.059266,-0.0098446
21,0.0056916,5.3444,-0.0015355,0.3047,-0.06025,-0.0073675
21,0.0054719,5.3799,-0.0013427,0.31681,-0.060987,-0.00475
21,0.0052638,5.4162,-0.0011305,0.32335,-0.061462,-0.0019185
21,0.0050785,5.4531,-0.00090234,0.32495,-0.061654,0.0010126
21,0.004912,5.4904,-0.00064118,0.32266,-0.061553,0.004843
22,-0.0016109,7.7682,0.0054216,-0.087965,-0.030082,0.062997
22,-0.0011686,7.7598,0.0056937,-0.090179,-0.023782,0.06378
22,-0.00062741,7.7521,0.0059461,-0.090535,-0.017404,0.063295
22,-4.79E-05,7.7451,0.0061715,-0.08965,-0.011074,0.061887
22,0.00056139,7.7387,0.006374,-0.088079,-0.0048857,0.060565
22,0.0011795,7.7329,0.0065422,-0.086092,0.0011708,0.058766
22,0.0017926,7.7276,0.0066973,-0.083846,0.0070474,0.053268
22,0.0024047,7.7227,0.0068404,-0.08145,0.012374,0.097347
22,0.0032529,7.7112,0.0073012,-0.077503,0.022109,0.080442
22,0.0041257,7.6977,0.0077148,-0.07363,0.030153,0.06243
22,0.0050188,7.684,0.0079662,-0.069877,0.036396,0.046024
22,0.0059419,7.6721,0.0080547,-0.066336,0.040999,0.031614
22,0.0068899,7.6625,0.0080206,-0.06307,0.04416,0.019009
22,0.0078452,7.6549,0.0079198,-0.060074,0.046061,0.0082685
22,0.0088066,7.6486,0.0077649,-0.057306,0.046888,-0.0011154
22,0.0097467,7.6434,0.0075666,-0.054732,0.046776,-0.009732
22,0.010696,7.639,0.0073385,-0.052337,0.045803,-0.017877
22,0.011652,7.6354,0.0070711,-0.050111,0.044015,-0.02566
22,0.012614,7.6325,0.0066723,-0.044575,0.041449,-0.0406
22,0.013541,7.6303,0.0062437,-0.037942,0.037389,-0.053877
22,0.014322,7.6285,0.0057839,-0.031223,0.032002,-0.0659
22,0.014941,7.6271,0.0052981,-0.025363,0.025412,-0.076855
22,0.015414,7.6259,0.0047647,-0.020765,0.017726,-0.087051
22,0.015792,7.6249,0.0041918,-0.017218,0.009021,-0.096604
22,0.016091,7.6241,0.0035862,-0.014,-0.00063937,-0.1067
22,0.016313,7.6234,0.0029733,-0.01024,-0.01131,-0.11614
22,0.01647,7.6229,0.0023413,-0.0053515,-0.022923,-0.11816
22,0.016547,7.6225,0.0016934,0.00078496,-0.03474,-0.1077
22,0.016598,7.6221,0.001039,0.0083293,-0.04551,-0.086949
22,0.016613,7.6218,0.00039883,0.018124,-0.054205,-0.063987
22,0.016587,7.6215,-0.00017021,0.031341,-0.060603,-0.045594
22,0.016538,7.6214,-0.00066071,0.048612,-0.065163,-0.032043
22,0.016419,7.621,-0.0010599,0.069711,-0.068367,-0.021573
22,0.016229,7.6205,-0.0014033,0.093905,-0.070524,-0.013991
22,0.015979,7.6206,-0.0017137,0.12052,-0.071924,-0.0086363
22,0.015693,7.6229,-0.0019837,0.1491,-0.072787,-0.0042321
22,0.015378,7.6283,-0.0022202,0.17931,-0.07321,-0.00012027
22,0.015038,7.637,-0.0024092,0.21087,-0.073222,0.0038485
22,0.014692,7.6492,-0.002559,0.24353,-0.072838,0.0077886
22,0.014339,7.6665,-0.0026369,0.2771,-0.072059,0.011984
22,0.013981,7.6912,-0.0026355,0.31132,-0.07086,0.016622
22,0.013619,7.7243,-0.0025291,0.346,-0.069198,0.02179
22,0.013294,7.7654,-0.0023292,0.3815,-0.067019,0.027438
22,0.012985,7.8128,-0.0024665,0.4186,-0.064275,0.030755
22,0.012664,7.8652,-0.0033698,0.45764,-0.0612,0.029342
22,0.012345,7.9216,-0.0054004,0.49818,-0.058266,0.020572
22,0.012029,7.9815,-0.0087978,0.53947,-0.056209,-0.00014206
22,0.011728,8.0442,-0.013359,0.58095,-0.056223,-0.034278
22,0.011479,8.1091,-0.01885,0.62166,-0.059651,-0.079779
22,0.011339,8.176,-0.02511,0.65941,-0.067628,-0.13189
23,-0.039318,5.1455,0.034255,0.08148,-0.15167,0.18293
23,-0.035436,5.1516,0.031925,0.087649,-0.13337,0.14275
23,-0.031592,5.1574,0.029412,0.094536,-0.1191,0.10444
23,-0.02778,5.1631,0.02674,0.10177,-0.10865,0.067335
23,-0.024167,5.1693,0.023931,0.10781,-0.10192,0.030633
23,-0.021045,5.1768,0.021291,0.11144,-0.098857,-0.002602
23,-0.018647,5.1863,0.019213,0.11308,-0.099117,-0.027379
23,-0.016993,5.1982,0.01773,0.11448,-0.10185,-0.044241
23,-0.01594,5.2121,0.016721,0.11719,-0.10628,-0.055763
23,-0.015371,5.2277,0.016116,0.1212,-0.11186,-0.062915
23,-0.015204,5.2445,0.015853,0.12593,-0.11815,-0.0666
23,-0.015355,5.2623,0.015866,0.13131,-0.12481,-0.068658
23,-0.015769,5.2814,0.016172,0.13806,-0.13167,-0.067066
23,-0.016415,5.3011,0.01638,0.147,-0.13838,-0.058609
23,-0.017252,5.319,0.015972,0.15838,-0.14424,-0.04468
23,-0.017799,5.333,0.014714,0.17199,-0.14871,-0.029716
23,-0.017436,5.3437,0.012738,0.18767,-0.15168,-0.01849
23,-0.016083,5.3541,0.010755,0.20565,-0.15353,-0.010303
23,-0.01391,5.3667,0.0093121,0.22607,-0.15456,0.00066951
23,-0.011047,5.3815,0.0083946,0.24887,-0.15449,0.015863
23,-0.0076121,5.3973,0.0078265,0.274,-0.15291,0.033197
23,-0.0037044,5.4142,0.0075408,0.30141,-0.14959,0.051966
23,0.0007524,5.4335,0.0074952,0.33041,-0.14439,0.071659
23,0.004979,5.4571,0.0076484,0.36099,-0.13722,0.09212
23,0.007778,5.486,0.0079594,0.39501,-0.12801,0.1134
23,0.0083825,5.5207,0.0080192,0.43396,-0.11667,0.13121
23,0.0068293,5.5617,0.0072658,0.47711,-0.10355,0.13913
23,0.0045178,5.6095,0.0056225,0.52171,-0.089638,0.13681
23,0.0026845,5.6643,0.0032365,0.56487,-0.075957,0.12637
23,0.0014179,5.7254,0.00022275,0.6056,-0.06332,0.10928
23,0.0004491,5.7925,-0.0031891,0.62591,-0.052392,0.084621
23,-0.00027341,5.8651,-0.0072575,0.64841,-0.04393,0.054312
23,-0.00077898,5.9422,-0.012145,0.67211,-0.038499,0.017116
23,-0.0011183,6.0231,-0.017083,0.69525,-0.036787,-0.020733
23,-0.0013331,6.109,-0.02071,0.71635,-0.03886,-0.047363
23,-0.0017609,6.2009,-0.021963,0.73419,-0.043597,-0.052044
23,-0.0029046,6.298,-0.020589,0.74745,-0.048801,-0.033728
23,-0.0048378,6.3976,-0.018083,0.75468,-0.052174,-0.0078584
23,-0.0074375,6.4965,-0.015988,0.75538,-0.05296,0.010493
23,-0.010602,6.5927,-0.015354,0.72482,-0.05191,0.0099961
23,-0.01399,6.6492,-0.015653,0.72767,-0.050911,0.0066453
23,-0.018219,6.7111,-0.016121,0.72774,-0.050246,0.0020752
23,-0.023538,6.7778,-0.016772,0.7252,-0.050039,-0.0047561
23,-0.029186,6.8476,-0.017608,0.71996,-0.050514,-0.01399
23,-0.033642,6.9187,-0.018638,0.7107,-0.051913,-0.026097
23,-0.035543,6.9891,-0.019664,0.69584,-0.054523,-0.039432
23,-0.034348,7.0566,-0.020297,0.67469,-0.058466,-0.050862
23,-0.031648,7.1189,-0.020377,0.64791,-0.063552,-0.059531
23,-0.029291,7.175,-0.019867,0.6169,-0.069505,-0.065416
23,-0.029291,7.175,-0.019867,0.6169,-0.076047,-0.065416
24,0.012391,4.2997,-0.013312,-0.11671,-0.056505,0.042465
24,0.011162,4.2892,-0.013929,-0.11502,-0.052259,0.060942
24,0.010046,4.2797,-0.015141,-0.10681,-0.046164,0.064219
24,0.009032,4.2711,-0.016883,-0.091192,-0.039743,0.049608
24,0.0081069,4.2632,-0.018734,-0.06788,-0.034782,0.029059
24,0.007261,4.2559,-0.020055,-0.036719,-0.031876,0.014986
24,0.0064858,4.2493,-0.020787,0.00080412,-0.030377,0.0083107
24,0.0057868,4.2432,-0.02114,0.04089,-0.029546,0.0063673
24,0.0031947,4.2209,-0.021418,0.091245,-0.028909,0.01729
24,0.0012082,4.2018,-0.021519,0.1422,-0.02718,0.030087
24,-0.0004746,4.1862,-0.021489,0.19318,-0.024172,0.043964
24,-0.0026696,4.1769,-0.021372,0.24422,-0.019775,0.0586
24,-0.0058807,4.1777,-0.021193,0.29542,-0.013915,0.068378
24,-0.010182,4.1921,-0.020973,0.34673,-0.0070775,0.069053
24,-0.015018,4.2226,-0.020715,0.39811,-0.00017221,0.062759
24,-0.019268,4.2719,-0.020428,0.44952,0.0061037,0.051037
24,-0.022665,4.3395,-0.02012,0.50091,0.011207,0.035435
24,-0.02545,4.4197,-0.019804,0.55228,0.014751,0.016615
24,-0.027609,4.5064,-0.018495,0.61208,0.016412,0.016728
24,-0.029289,4.5956,-0.017538,0.67068,0.018085,0.0025858
24,-0.030587,4.686,-0.016674,0.72756,0.018344,-0.024926
24,-0.031582,4.7777,-0.015117,0.77958,0.015851,-0.050861
24,-0.032339,4.8706,-0.012394,0.82265,0.010765,-0.059865
24,-0.032913,4.9645,-0.008463,0.8532,0.0047785,-0.046433
24,-0.033322,5.0594,-0.0039016,0.86836,0.00013521,-0.020951
24,-0.033595,5.155,0.0001615,0.86539,-0.0019599,0.00012439
24,-0.033754,5.2511,0.0034438,0.84466,-0.0019474,0.013087
24,-0.03382,5.3478,0.0061592,0.81175,-0.00063871,0.020437
24,-0.033796,5.445,0.0082805,0.77272,0.0014049,0.021138
24,-0.033868,5.5432,0.0099696,0.73121,0.0035187,0.018175
24,-0.033823,5.6414,0.011327,0.68873,0.0053362,0.018231
24,-0.032903,5.7361,0.012451,0.64606,0.0071594,0.025497
24,-0.030668,5.8231,0.013426,0.6042,0.0097091,0.04093
24,-0.027108,5.8985,0.014299,0.56429,0.013802,0.06137
24,-0.022821,5.9593,0.015067,0.52725,0.019939,0.081769
24,-0.018945,6.0027,0.015748,0.49369,0.028116,0.10118
24,-0.015778,6.0288,0.016365,0.46379,0.038234,0.11953
24,-0.013132,6.0432,0.016921,0.43724,0.050187,0.13702
24,-0.011048,6.0518,0.01742,0.41333,0.063889,0.15421
24,-0.00935,6.058,0.017965,0.39129,0.07931,0.17264
24,-0.0079324,6.0635,0.018455,0.37113,0.096574,0.19059
24,-0.0066807,6.0698,0.018505,0.35427,0.11563,0.20282
24,-0.0054873,6.079,0.017888,0.3426,0.13591,0.2067
24,-0.0043157,6.0931,0.016608,0.33781,0.15658,0.20226
24,-0.0031886,6.1139,0.014964,0.34121,0.17681,0.19262
24,-0.0020982,6.1423,0.013518,0.35408,0.19607,0.18382
24,-0.001025,6.1787,0.01242,0.37617,0.21445,0.17754
24,2.07E-05,6.2223,0.011584,0.4046,0.23221,0.17251
24,0.0010438,6.2717,0.011038,0.43638,0.24946,0.17035
24,0.0020612,6.3258,0.010684,0.46983,0.26649,0.16834
25,0.0079343,3.3413,0.0016203,0.66792,0.12677,-0.029905
25,0.0080603,3.3908,0.0016535,0.70377,0.12378,-0.030913
25,0.0081926,3.438,0.001684,0.73695,0.12069,-0.031543
25,0.0083407,3.4837,0.001712,0.76648,0.11754,-0.031965
25,0.0085632,3.5302,0.0017313,0.79171,0.11434,-0.050297
25,0.0088346,3.6077,0.0018014,0.83754,0.10931,-0.05333
25,0.009046,3.695,0.0018401,0.87611,0.10398,-0.05706
25,0.0092604,3.7933,0.0018565,0.90802,0.098272,-0.060567
25,0.0094903,3.9016,0.0018639,0.93483,0.092215,-0.063279
25,0.0097201,4.0182,0.0018723,0.95836,0.085888,-0.063394
25,0.0099365,4.1412,0.0018829,0.98013,0.079548,-0.063239
25,0.010155,4.2689,0.0018755,1.0013,0.073224,-0.064205
25,0.010375,4.399,0.0018554,1.0226,0.066804,-0.064462
25,0.010597,4.5288,0.0018063,1.0435,0.060357,-0.064191
25,0.010807,4.6559,0.0016498,1.0616,0.053938,-0.064669
25,0.011006,4.7784,0.0014438,1.0604,0.047471,-0.064325
25,0.011172,4.8947,0.0012932,1.0493,0.041039,-0.062643
25,0.011308,5.0045,0.001129,1.0273,0.034775,-0.06029
25,0.011435,5.1081,0.00093401,0.99521,0.028746,-0.057716
25,0.011566,5.2068,0.00072661,0.95504,0.022974,-0.055162
25,0.0117,5.3015,0.00052872,0.9085,0.017458,-0.052393
25,0.011811,5.3934,0.00031894,0.85703,0.012219,-0.049723
25,0.011903,5.4832,9.27E-05,0.80224,0.0072462,-0.047186
25,0.011953,5.5706,-0.00014045,0.74584,0.0025277,-0.044569
25,0.011863,5.6533,-0.00036626,0.68932,-0.0019292,-0.042039
25,0.011722,5.7285,-0.00058598,0.63392,-0.0061331,-0.039579
25,0.011632,5.7937,-0.00078749,0.58055,-0.010091,-0.037086
25,0.011518,5.8479,-0.00097393,0.52966,-0.0138,-0.034531
25,0.011358,5.892,-0.0011545,0.48111,-0.017253,-0.031963
25,0.011173,5.9282,-0.0013499,0.43449,-0.020449,-0.030257
25,0.010994,5.9582,-0.0015643,0.38938,-0.023475,-0.028962
25,0.010793,5.983,-0.0017679,0.34532,-0.026371,-0.027337
25,0.010561,6.0035,-0.0019561,0.30187,-0.029105,-0.025885
25,0.010316,6.0205,-0.0021118,0.2592,-0.031693,-0.024634
25,0.010074,6.0345,-0.0021748,0.21854,-0.034156,-0.02281
25,0.0098344,6.0462,-0.0021874,0.1813,-0.036437,-0.020573
25,0.0095967,6.0558,-0.002211,0.14869,-0.038495,-0.018511
25,0.0093606,6.0638,-0.0021911,0.12134,-0.040346,-0.016051
25,0.0091257,6.0704,-0.0020956,0.098875,-0.041951,-0.012892
25,0.0088657,6.0758,-0.0019442,0.080474,-0.04324,-0.0094057
25,0.0085715,6.0803,-0.0017729,0.065284,-0.044181,-0.006027
25,0.0082756,6.084,-0.0015588,0.052678,-0.044784,-0.0024134
25,0.0079912,6.087,-0.0012961,0.04223,-0.045025,0.0013913
25,0.0077297,6.089,-0.001013,0.033679,-0.044886,0.005038
25,0.0075133,6.0904,-0.00069986,0.026796,-0.044382,0.0090114
25,0.0073475,6.0911,-0.00035522,0.021062,-0.043481,0.013462
25,0.0072103,6.0911,-0.00016883,0.015377,-0.042135,0.01648
25,0.0071363,6.0905,-0.00046213,0.0082327,-0.040487,0.014881
25,0.0071672,6.0898,-0.0014945,-0.0015931,-0.038999,0.0066853
25,0.0072849,6.0892,-0.0033159,-0.014539,-0.03833,-0.0090735
26,0.0025489,5.1749,0.0051286,0.93906,0.076118,0.022689
26,0.0032011,5.2729,0.0055523,0.90067,0.078387,0.026351
26,0.0038722,5.3673,0.0059226,0.86157,0.081022,0.029627
26,0.0045459,5.4589,0.0061763,0.82266,0.083985,0.031992
26,0.0052085,5.5475,0.0063467,0.78503,0.087184,0.033841
26,0.0057961,5.6308,0.0064614,0.75005,0.090568,0.035134
26,0.006427,5.7063,0.0064838,0.71863,0.094082,0.035239
26,0.0071859,5.7717,0.0064234,0.69069,0.097605,0.034231
26,0.0079716,5.8259,0.0063076,0.66582,0.10103,0.032441
26,0.0087532,5.8705,0.006146,0.64417,0.10427,0.030193
26,0.0095315,5.9091,0.00594,0.62599,0.10729,0.027216
26,0.010333,5.9454,0.0056971,0.61107,0.11001,0.023722
26,0.011102,5.9828,0.0054369,0.59871,0.11239,0.019868
26,0.011764,6.0235,0.0051757,0.58826,0.11437,0.015696
26,0.012351,6.0688,0.0049135,0.5798,0.11594,0.011464
26,0.01289,6.1193,0.0046702,0.57433,0.11709,0.0071852
26,0.013335,6.1745,0.0043966,0.57312,0.11781,0.0023026
26,0.01369,6.2336,0.0040518,0.57744,0.11804,-0.0035503
26,0.013984,6.2958,0.0036744,0.58781,0.11768,-0.010193
26,0.014228,6.3603,0.0032832,0.60302,0.11666,-0.01748
26,0.014429,6.4269,0.0028675,0.6205,0.11491,-0.025163
26,0.014595,6.4951,0.0024051,0.63723,0.1124,-0.03308
26,0.014746,6.5647,0.0019238,0.6507,0.10909,-0.041055
26,0.014897,6.6354,0.0014731,0.65906,0.10499,-0.049083
26,0.015035,6.7071,0.001041,0.66104,0.10008,-0.056664
26,0.015137,6.7795,0.0006045,0.65631,0.09441,-0.063365
26,0.01522,6.8526,0.00021052,0.64543,0.088074,-0.068891
26,0.015289,6.9266,-0.00013514,0.62958,0.081185,-0.073151
26,0.01532,7.0015,-0.00045401,0.60987,0.07387,-0.076246
26,0.01532,7.0766,-0.00074412,0.58699,0.066245,-0.078272
26,0.015266,7.1501,-0.00092004,0.55977,0.058418,-0.078319
26,0.015143,7.2199,-0.0010852,0.53087,0.050586,-0.077758
26,0.014949,7.2842,-0.0012507,0.50058,0.04281,-0.07665
26,0.01471,7.3416,-0.0014263,0.46913,0.035145,-0.075184
26,0.014433,7.3909,-0.0016075,0.4367,0.027627,-0.073756
26,0.014099,7.4319,-0.0017758,0.40348,0.020251,-0.072024
26,0.013756,7.4654,-0.0019544,0.36954,0.013049,-0.070059
26,0.01342,7.4928,-0.0021491,0.33474,0.0060431,-0.068016
26,0.013076,7.5155,-0.0023306,0.29903,-0.00075851,-0.065629
26,0.012739,7.5343,-0.0023303,0.26151,-0.0073214,-0.061348
26,0.012589,7.5464,-0.0024249,0.23659,-0.013456,-0.038475
26,0.012425,7.5568,-0.0024913,0.21094,-0.017304,-0.037451
26,0.012245,7.5658,-0.0025238,0.1855,-0.021049,-0.035945
26,0.012045,7.5737,-0.0025319,0.16122,-0.024643,-0.033464
26,0.01182,7.5805,-0.002516,0.1391,-0.02799,-0.030587
26,0.011585,7.5864,-0.0024568,0.11977,-0.031048,-0.027787
26,0.011312,7.5917,-0.0023823,0.10322,-0.033827,-0.024949
26,0.010991,7.5961,-0.0023009,0.088964,-0.036322,-0.022124
26,0.010659,7.5996,-0.0021975,0.076434,-0.038534,-0.019286
26,0.010659,7.5996,-0.0021975,0.076434,-0.040463,-0.019286
27,0.074118,6.606,-0.039362,0.21214,0.25443,-0.60003
27,0.067568,6.642,-0.036577,0.24171,0.19442,-0.55304
27,0.057937,6.6753,-0.034622,0.26269,0.13912,-0.50648
27,0.047798,6.7046,-0.033677,0.27903,0.08847,-0.46831
27,0.039437,6.7316,-0.033532,0.29432,0.041639,-0.44018
27,0.033309,6.7613,-0.033558,0.30935,-0.0023788,-0.41624
27,0.028161,6.7974,-0.033388,0.32072,-0.044003,-0.39283
27,0.023824,6.842,-0.032965,0.32446,-0.083286,-0.36887
27,0.020288,6.8926,-0.032654,0.31927,-0.12017,-0.34664
27,0.017547,6.9417,-0.0322,0.3061,-0.15484,-0.32282
27,0.015569,6.9832,-0.03058,0.28758,-0.18712,-0.28826
27,0.014104,7.0161,-0.026983,0.26678,-0.21594,-0.23604
27,0.013089,7.0451,-0.021776,0.2463,-0.23955,-0.16982
27,0.012421,7.075,-0.016415,0.22837,-0.25653,-0.10243
27,0.011736,7.1068,-0.012172,0.21337,-0.26677,-0.04451
27,0.011223,7.1373,-0.0091873,0.19787,-0.27122,0.0026896
27,0.011153,7.1611,-0.0066133,0.17751,-0.27096,0.044205
27,0.011556,7.1754,-0.0043522,0.148,-0.26653,0.078592
27,0.012101,7.182,-0.0024488,0.10918,-0.25868,0.10532
27,0.012498,7.1834,-0.00095314,0.067392,-0.24814,0.12413
27,0.012959,7.1812,0.00011308,0.029619,-0.23573,0.13494
27,0.013603,7.1756,0.00085694,-0.0018471,-0.22224,0.13926
27,0.014386,7.1679,0.0013144,-0.029194,-0.20831,0.13954
27,0.014968,7.1613,0.0016336,-0.054799,-0.19436,0.13997
27,0.015094,7.1583,0.002095,-0.077909,-0.18036,0.14421
27,0.014935,7.157,0.0023913,-0.09608,-0.16594,0.14919
27,0.014935,7.1524,0.002248,-0.10695,-0.15102,0.15222
27,0.015119,7.138,0.0017676,-0.11136,-0.1358,0.15376
27,0.01539,7.1109,0.0012978,-0.11404,-0.12042,0.15551
27,0.015641,7.0765,0.0010078,-0.11874,-0.10487,0.15681
27,0.015795,7.0424,0.00074484,-0.12146,-0.089189,0.15646
27,0.015818,7.0124,0.00038155,-0.12246,-0.073542,0.1535
27,0.015718,6.9867,-7.57E-05,-0.12056,-0.058192,0.14812
27,0.015688,6.9654,-0.00043329,-0.11702,-0.04338,0.14231
27,0.015926,6.9509,-0.00055657,-0.11444,-0.029149,0.13748
27,0.016005,6.9451,-0.00053243,-0.11325,-0.015401,0.133
27,0.015649,6.9472,-0.00052354,-0.11066,-0.0021015,0.12781
27,0.015092,6.9527,-0.00060585,-0.10073,0.01068,0.12136
27,0.014696,6.9539,-0.00079001,-0.079012,0.022816,0.11331
27,0.014514,6.946,-0.00091525,-0.061808,0.034146,0.10439
27,0.014448,6.9382,-0.0010448,-0.047114,0.044585,0.066806
27,0.014366,6.9307,-0.0011154,-0.033081,0.051266,0.065141
27,0.014234,6.9268,-0.0011223,-0.019892,0.05778,0.06337
27,0.014101,6.9273,-0.0011737,-0.0078398,0.064117,0.060521
27,0.01398,6.9294,-0.001411,0.0013074,0.070169,0.05527
27,0.01387,6.9305,-0.0015681,0.0055532,0.075696,0.049573
27,0.013888,6.9311,-0.0014149,0.0043542,0.080654,0.045205
27,0.013907,6.9365,-0.0010681,0.00014473,0.085174,0.041275
27,0.01381,6.9529,-0.00080557,-0.0009413,0.089301,0.036251
27,0.01381,6.9529,-0.00080557,-0.0009413,0.092927,0.036251
28,0.0017087,4.4033,0.003916,0.07118,0.13912,0.0036544
28,0.0022846,4.4138,0.0043759,0.077845,0.13949,0.0087478
28,0.0028023,4.4233,0.0046518,0.082713,0.14036,0.011605
28,0.0032894,4.4319,0.0047832,0.085689,0.14152,0.01283
28,0.0037447,4.4397,0.0048173,0.086743,0.14281,0.012673
28,0.0041508,4.4469,0.0047864,0.086402,0.14407,0.011711
28,0.0044987,4.4534,0.0047122,0.085224,0.14524,0.010305
28,0.0048153,4.4594,0.0046103,0.083497,0.14628,0.0086822
28,0.0051043,4.4648,0.0044911,0.081426,0.14714,0.0071218
28,0.0053688,4.4699,0.004362,0.079153,0.14786,0.0055264
28,0.0056247,4.4745,0.0042282,0.076777,0.14841,0.01514
28,0.0065221,4.4889,0.00401,0.072831,0.14992,0.011381
28,0.0072909,4.5025,0.0038089,0.069163,0.15106,0.008241
28,0.0079269,4.5147,0.0036065,0.065942,0.15188,0.0061398
28,0.008453,4.5247,0.0034063,0.063193,0.1525,0.0047177
28,0.0088882,4.5329,0.0032259,0.060437,0.15297,0.0039462
28,0.0092483,4.5397,0.0030642,0.056819,0.15336,0.0036672
28,0.0095462,4.5452,0.0029029,0.051632,0.15373,0.003151
28,0.0097926,4.5499,0.0027493,0.044844,0.15405,0.0027251
28,0.0099964,4.5537,0.0025963,0.036827,0.15432,0.0021904
28,0.010165,4.5568,0.0024315,0.027586,0.15454,0.0014115
28,0.010305,4.5594,0.0019391,0.011357,0.15468,-0.0025031
28,0.01042,4.5616,0.0015055,-0.0074318,0.15443,-0.0056958
28,0.010502,4.5638,0.001127,-0.028741,0.15386,-0.0081154
28,0.010557,4.5661,0.00079412,-0.051581,0.15305,-0.0090073
28,0.010603,4.5677,0.00049901,-0.075076,0.15215,-0.0093436
28,0.010627,4.567,0.00024172,-0.099152,0.15121,-0.0098623
28,0.010621,4.5626,1.57E-05,-0.12444,0.15023,-0.010075
28,0.010603,4.5545,-0.0001976,-0.15163,0.14922,-0.01016
28,0.010561,4.5435,-0.00040039,-0.18086,0.1482,-0.009932
28,0.010488,4.5296,-0.00058788,-0.21176,0.14721,-0.0095886
28,0.0104,4.5116,-0.00076274,-0.24387,0.14625,-0.0093734
28,0.010302,4.4877,-0.00092714,-0.27703,0.14531,-0.0091856
28,0.010181,4.4572,-0.0010763,-0.31144,0.14439,-0.0091593
28,0.010041,4.4216,-0.0012129,-0.34703,0.14348,-0.0094194
28,0.0098862,4.3827,-0.001339,-0.38275,0.14254,-0.010168
28,0.0097317,4.3413,-0.0014499,-0.41681,0.14152,-0.011534
28,0.0095776,4.2964,-0.0015351,-0.44776,0.14037,-0.013063
28,0.0093974,4.2466,-0.0016122,-0.47548,0.13906,-0.014852
28,0.0091957,4.192,-0.0016693,-0.50071,0.13758,-0.016852
28,0.0089893,4.1333,-0.0017034,-0.52341,0.13589,-0.018953
28,0.0087791,4.0717,-0.0017317,-0.54208,0.13399,-0.021484
28,0.0085657,4.0075,-0.0017485,-0.55475,0.13185,-0.024163
28,0.0083497,3.9409,-0.0017558,-0.56085,0.12943,-0.02722
28,0.0081316,3.872,-0.0017552,-0.56191,0.12671,-0.031213
28,0.0079247,3.8022,-0.0017482,-0.56002,0.12359,-0.035291
28,0.0077273,3.7334,-0.0017489,-0.55578,0.12006,-0.038941
28,0.0075508,3.6671,-0.0017562,-0.54811,0.11616,-0.04267
28,0.0073785,3.6036,-0.0017424,-0.5358,0.1119,-0.046209
28,0.0072228,3.5421,-0.0017112,-0.51874,0.10728,-0.049879
28,0.0070808,3.4828,-0.0016789,-0.49776,0.10229,-0.053805
28,0.006937,3.4275,-0.0016456,-0.47382,0.096907,-0.05763
28,0.0068049,3.3782,-0.001618,-0.44745,0.091144,-0.061756
28,0.0066693,3.3355,-0.001582,-0.41886,0.084969,-0.06589
28,0.0065308,3.2978,-0.0015457,-0.38835,0.07838,-0.069813
28,0.0063899,3.2627,-0.0015222,-0.35668,0.071398,-0.073289
28,0.0062338,3.2298,-0.0014962,-0.32494,0.06407,-0.07558
28,0.0060652,3.2001,-0.0014812,-0.29401,0.056512,-0.076941
28,0.0059126,3.175,-0.0014623,-0.26408,0.048817,-0.077457
28,0.0057732,3.1545,-0.0014598,-0.23482,0.041072,-0.077696
28,0.0056315,3.1378,-0.0014643,-0.20642,0.033302,-0.077575
28,0.005488,3.124,-0.0014615,-0.17992,0.025545,-0.076809
28,0.0053298,3.1126,-0.0014657,-0.15655,0.017864,-0.075958
28,0.0051857,3.1032,-0.001456,-0.13655,0.010268,-0.074375
28,0.0050402,3.0953,-0.0014283,-0.11894,0.0028304,-0.071963
28,0.0048804,3.0889,-0.0013922,-0.10246,-0.0043659,-0.069194
28,0.004735,3.0835,-0.0013491,-0.086849,-0.011285,-0.066039
28,0.0045884,3.0791,-0.0012938,-0.072723,-0.017889,-0.062664
28,0.0044539,3.0754,-0.001248,-0.060734,-0.024156,-0.059648
28,0.0043032,3.0724,-0.0011969,-0.050961,-0.03012,-0.056097
28,0.0041522,3.07,-0.0011416,-0.042994,-0.03573,-0.051794
28,0.0040141,3.0676,-0.0011418,-0.036542,-0.040909,-0.047881
28,0.0038736,3.0651,-0.0011025,-0.031474,-0.045698,-0.04317
28,0.0037573,3.0624,-0.0007015,-0.027255,-0.050015,-0.032316
28,0.0036743,3.0599,0.00032125,-0.022416,-0.053246,-0.0099804
28,0.0036056,3.0578,0.0016675,-0.015326,-0.054244,0.018216
28,0.0035356,3.0561,0.0028141,-0.0046301,-0.052423,0.041823
28,0.0034777,3.0547,0.0034665,0.010523,-0.04824,0.054999
28,0.0034166,3.0535,0.003618,0.029863,-0.04274,0.058277
28,0.0033793,3.0526,0.0034406,0.052562,-0.036913,0.055302
28,0.0033484,3.0518,0.0037275,0.057135,-0.031382,0.061626
28,0.0032044,3.051,0.0040246,0.062037,-0.02522,0.067845
28,0.0031247,3.0497,0.0043515,0.067482,-0.018435,0.074657
28,0.0037827,3.0487,0.0047,0.073535,-0.01097,0.081681
28,0.0056827,3.0505,0.0050631,0.080143,-0.0028016,0.088553
28,0.0082154,3.0582,0.0054678,0.087303,0.0060537,0.09612
28,0.010363,3.0743,0.0059429,0.09521,0.015666,0.10461
28,0.011521,3.1001,0.0064856,0.10415,0.026127,0.11424
28,0.01169,3.1351,0.0071236,0.1145,0.03755,0.12567
28,0.011184,3.1776,0.0071423,0.11498,0.050118,0.12645
28,0.011607,3.1843,0.0075345,0.12142,0.062762,0.071663
28,0.012063,3.1917,0.0080331,0.12865,0.069929,0.080294
28,0.012577,3.2001,0.0085524,0.13698,0.077958,0.089832
28,0.013157,3.2095,0.0086757,0.14617,0.086941,0.093455
28,0.0138,3.2202,0.0079874,0.15467,0.096287,0.082412
28,0.014541,3.2324,0.0067489,0.16021,0.10453,0.060404
28,0.015421,3.2465,0.0056159,0.1602,0.11057,0.039354
28,0.016449,3.263,0.0051187,0.15199,0.1145,0.029466
28,0.017664,3.2825,0.0054309,0.13398,0.11745,0.033922
28,0.017664,3.2825,0.0054309,0.13398,0.12084,0.033922
29,-0.0021523,1.566,0.0006001,-0.43316,0.14943,-0.012129
29,-0.001853,1.4927,0.00039442,-0.44889,0.14822,-0.022318
29,-0.0015981,1.4248,0.00018113,-0.45334,0.14599,-0.026339
29,-0.0014591,1.3672,3.96E-05,-0.44891,0.14335,-0.029421
29,-0.001399,1.3202,-5.19E-05,-0.4378,0.14041,-0.034973
29,-0.0013749,1.2805,-0.00016956,-0.42147,0.13691,-0.041448
29,-0.0013591,1.2444,-0.00033515,-0.40064,0.13277,-0.049258
29,-0.0013337,1.2109,-0.00053777,-0.37565,0.12784,-0.057709
29,-0.0013169,1.1807,-0.00074011,-0.34688,0.12207,-0.064455
29,-0.0013756,1.1544,-0.00090394,-0.31512,0.11562,-0.066891
29,-0.0015522,1.1328,-0.0010378,-0.28196,0.10894,-0.08213
29,-0.0017184,1.0722,-0.0013751,-0.22551,0.10072,-0.089802
29,-0.0019349,1.022,-0.0016842,-0.17221,0.091743,-0.10031
29,-0.0021008,0.9824,-0.0018973,-0.12694,0.081712,-0.11322
29,-0.002225,0.95307,-0.0020396,-0.090545,0.07039,-0.12547
29,-0.0024066,0.93378,-0.0021379,-0.060235,0.057843,-0.13513
29,-0.0026885,0.92496,-0.0022172,-0.032852,0.044329,-0.14281
29,-0.0030665,0.92737,-0.002302,-0.0073432,0.030048,-0.15038
29,-0.0034845,0.9416,-0.0023899,0.015776,0.01501,-0.158
29,-0.0038697,0.96725,-0.0024066,0.035529,-0.00078972,-0.16242
29,-0.004228,1.0021,-0.0022379,0.050352,-0.017032,-0.15809
29,-0.0046033,1.0417,-0.0018974,0.080325,-0.032841,-0.14453
29,-0.0049664,1.0804,-0.0014117,0.099046,-0.047293,-0.12934
29,-0.0052536,1.1133,-0.00093755,0.10589,-0.060228,-0.11482
29,-0.0054781,1.1391,-0.00053212,0.10174,-0.07171,-0.1012
29,-0.0056507,1.16,-0.00013748,0.087798,-0.08183,-0.088753
29,-0.0057934,1.1787,0.0002877,0.064795,-0.090705,-0.075997
29,-0.0059378,1.1962,0.00074474,0.032939,-0.098305,-0.06334
29,-0.0060967,1.2122,0.0012084,-0.0076162,-0.10464,-0.053168
29,-0.0061887,1.2254,0.001638,-0.055993,-0.10996,-0.050142
29,-0.0060279,1.2335,0.0020329,-0.10984,-0.11497,-0.058679
29,-0.0055132,1.2329,0.0024188,-0.1654,-0.12084,-0.079625
29,-0.0047584,1.2201,0.0027776,-0.21847,-0.1288,-0.090769
29,-0.0039759,1.1942,0.0030875,-0.26612,-0.13788,-0.071456
29,-0.0032892,1.1565,0.0033571,-0.30797,-0.14502,-0.034121
29,-0.0026816,1.1094,0.0035801,-0.34552,-0.14844,0.0041906
29,-0.0021131,1.0545,0.0037712,-0.38057,-0.14802,0.040161
29,-0.001577,0.99325,0.003949,-0.41397,-0.144,0.08048
29,-0.0010677,0.92636,0.0041422,-0.4458,-0.13595,0.13148
29,-0.00059371,0.85526,0.004302,-0.47537,-0.1228,0.19451
29,-0.00016211,0.78239,0.0042696,-0.50099,-0.10335,0.25439
29,0.00023442,0.71091,0.0039467,-0.52002,-0.077914,0.29107
29,0.00058879,0.64346,0.0034098,-0.53019,-0.048808,0.29688
29,0.00092143,0.58104,0.002834,-0.53103,-0.01912,0.28429
29,0.0012361,0.52321,0.0023379,-0.52363,0.0093087,0.27433
29,0.0015096,0.46899,0.0019209,-0.50948,0.036742,0.26226
29,0.001749,0.41757,0.0015431,-0.48988,0.062968,0.25109
29,0.0019602,0.36828,0.0011976,-0.46569,0.088077,0.25356
29,0.0021876,0.32062,0.00087225,-0.43759,0.11343,0.27944
29,0.0024152,0.27469,0.00057023,-0.40646,0.14138,0.3256
30,0.002713,4.4322,0.0056157,-0.42335,-0.046331,0.075216
30,0.0029815,4.3839,0.0045075,-0.47702,-0.03881,0.062097
30,0.0032036,4.3308,0.003571,-0.53214,-0.0326,0.051411
30,0.003361,4.2741,0.0027897,-0.58701,-0.027459,0.043401
30,0.0034648,4.2144,0.0021367,-0.63976,-0.023119,0.03658
30,0.0035245,4.1515,0.00159,-0.68927,-0.019461,0.029958
30,0.0034685,4.0832,0.0011376,-0.73531,-0.016465,0.024207
30,0.0034222,4.0067,0.00076345,-0.77747,-0.014044,0.01948
30,0.0034497,3.9206,0.0004539,-0.81464,-0.012096,0.015997
30,0.0034461,3.8256,0.00019123,-0.84556,-0.010497,0.013228
30,0.0034168,3.7237,-1.95E-05,-0.86963,-0.0091738,0.01101
30,0.0033663,3.6169,-0.0001938,-0.8872,-0.0080728,0.0090584
30,0.0032981,3.5074,-0.0003446,-0.89969,-0.007167,0.0073025
30,0.0032286,3.3979,-0.00045618,-0.90912,-0.0064367,0.0060401
30,0.0031448,3.2907,-0.00053533,-0.91709,-0.0058327,0.0051862
30,0.0030491,3.1862,-0.00058764,-0.92341,-0.0053141,0.004643
30,0.0029699,3.0829,-0.00053879,-0.92567,-0.0048498,0.0060337
30,0.0029044,2.9804,-0.00051153,-0.92081,-0.0042464,0.0069688
30,0.0028371,2.8797,-0.00057454,-0.90736,-0.0035495,0.0058808
30,0.0027551,2.7832,-0.00059376,-0.88585,-0.0029614,0.005474
30,0.0026741,2.693,-0.00058333,-0.85729,-0.002414,0.0055516
30,0.0025939,2.6095,-0.00054838,-0.82217,-0.0018589,0.0060144
30,0.0025144,2.5315,-0.00046682,-0.78173,-0.0012575,0.0069275
30,0.0024486,2.4558,-0.00035987,-0.73917,-0.0005647,0.0063501
30,0.0023942,2.3803,-0.00020557,-0.69796,7.03E-05,0.0077723
30,0.0023492,2.3047,-1.21E-05,-0.65884,0.00084753,0.01347
30,0.0023909,2.2318,0.00017424,-0.61987,0.0021945,0.019823
30,0.0023991,2.1651,0.00035473,-0.57927,0.0041769,0.026024
30,0.0023006,2.1059,0.00053695,-0.53739,0.0067793,0.031585
30,0.0022586,2.0539,0.00073377,-0.49628,0.0099378,0.037284
30,0.0022502,2.0091,0.00094265,-0.45827,0.013666,0.043745
30,0.0022695,1.9725,0.0011615,-0.4245,0.018041,0.0505
30,0.0023645,1.9439,0.0013755,-0.39408,0.023091,0.056962
30,0.0025089,1.9196,0.0015788,-0.36463,0.028787,0.063533
30,0.0027336,1.8948,0.00178,-0.33405,0.03514,0.070423
30,0.0030248,1.8685,0.0019858,-0.3021,0.042183,0.077122
30,0.0033184,1.8432,0.0021495,-0.27036,0.049895,0.082287
30,0.0036139,1.8218,0.0023245,-0.24078,0.058123,0.087687
30,0.003911,1.8049,0.0025613,-0.21425,0.066892,0.095109
30,0.0042226,1.7907,0.0027188,-0.18702,0.076403,0.099486
30,0.0045594,1.7764,0.0028635,-0.16342,0.086352,0.1036
30,0.0049169,1.7605,0.0029932,-0.14596,0.096712,0.1077
30,0.0052654,1.7433,0.0030542,-0.13599,0.10748,0.11071
30,0.0056063,1.7266,0.0030711,-0.13134,0.11855,0.1144
30,0.0059541,1.7122,0.0030211,-0.12756,0.12999,0.11585
30,0.0063208,1.7005,0.0029124,-0.12212,0.14158,0.11312
30,0.00669,1.6911,0.0027881,-0.11581,0.15289,0.10912
30,0.0070481,1.6835,0.0026484,-0.11038,0.1638,0.10442
30,0.0074233,1.6774,0.0024998,-0.10193,0.17424,0.098805
30,0.0076962,1.6799,0.0024674,-0.099784,0.18412,0.059226
31,0.0066438,1.634,-0.00034221,-0.28777,0.12963,0.0051093
31,0.0067975,1.626,-0.00046304,-0.32734,0.13015,0.0034292
31,0.0069152,1.6183,-0.00058355,-0.36101,0.13049,0.0024449
31,0.0068653,1.6069,-0.00070065,-0.3899,0.13073,0.0031568
31,0.0068204,1.5884,-0.00080325,-0.41429,0.13105,0.0052525
31,0.0068676,1.5611,-0.00090266,-0.4345,0.13157,0.0068206
31,0.006844,1.5254,-0.0010142,-0.45147,0.13226,0.0074717
31,0.0067573,1.4838,-0.0011396,-0.46645,0.133,0.0075311
31,0.0066287,1.439,-0.001272,-0.48028,0.13376,0.007283
31,0.0064733,1.3927,-0.0014,-0.49317,0.13448,0.0068841
31,0.0063016,1.3463,-0.0015227,-0.50524,0.13517,0.011142
31,0.0061345,1.2739,-0.0017984,-0.53841,0.13629,0.0082891
31,0.0059436,1.2008,-0.0020547,-0.57174,0.13712,0.0077747
31,0.005733,1.1272,-0.0021799,-0.60179,0.13789,0.016814
31,0.0055193,1.054,-0.002308,-0.62532,0.13958,0.026348
31,0.0052899,0.98227,-0.0025089,-0.63958,0.14221,0.025144
31,0.0050211,0.91166,-0.0026305,-0.64343,0.14472,0.023838
31,0.0047066,0.84106,-0.0026778,-0.63889,0.14711,0.02594
31,0.0043543,0.76952,-0.0026819,-0.62854,0.1497,0.029213
31,0.0039839,0.697,-0.0026082,-0.61361,0.15262,0.045434
31,0.0035985,0.62355,-0.0024927,-0.59399,0.15717,0.063089
31,0.0032007,0.54915,-0.0023912,-0.5558,0.16348,0.062148
31,0.0028058,0.47483,-0.002248,-0.51117,0.16969,0.056092
31,0.0025054,0.40331,-0.0020703,-0.46086,0.1753,0.043281
31,0.0022043,0.33774,-0.001864,-0.40641,0.17963,0.029226
31,0.0018499,0.28195,-0.001621,-0.34916,0.18255,0.021296
31,0.001583,0.23852,-0.001341,-0.2896,0.18468,0.015011
31,0.0014017,0.20601,-0.0010173,-0.22765,0.18618,0.011101
31,0.0012649,0.1819,-0.00065729,-0.16324,0.18729,0.0087032
31,0.001257,0.1655,-0.00027394,-0.09672,0.18816,0.0072916
31,0.0013163,0.15827,0.00012875,-0.028518,0.18889,0.0075183
31,0.0013521,0.16234,0.00053427,0.041072,0.18964,0.0071831
31,0.0014476,0.17847,0.00094872,0.1118,0.19036,0.0059121
31,0.0015924,0.20544,0.0013837,0.18349,0.19095,-0.01395
31,0.0017912,0.2412,0.0018423,0.25577,0.18956,-0.16012
31,0.0020478,0.28396,0.0023006,0.32708,0.17354,-0.2285
31,0.002339,0.33246,0.0027193,0.39601,0.1507,-0.13378
31,0.0026721,0.38576,0.0031051,0.46299,0.13732,-0.070923
31,0.0030397,0.44303,0.0034967,0.52877,0.13022,-0.040632
31,0.003436,0.50356,0.0038075,0.59259,0.12616,-0.041262
31,0.003856,0.56651,0.0040975,0.65238,0.12203,-0.050847
31,0.0042692,0.6313,0.0044953,0.70653,0.11695,-0.041615
31,0.0047032,0.69844,0.0048639,0.75501,0.11279,-0.03139
31,0.0052728,0.77028,0.0051755,0.79967,0.10965,-0.020684
31,0.0058888,0.84927,0.0054792,0.84271,0.10758,-0.01621
31,0.0064511,0.93612,0.0057635,0.88511,0.10596,-0.014428
31,0.0070215,1.0305,0.0060446,0.92695,0.10452,-0.0063395
31,0.0076119,1.132,0.0063102,0.96815,0.10388,0.00032443
31,0.0082582,1.2394,0.0065693,1.0088,0.10392,0.0044997
31,0.0088719,1.3507,0.0068298,1.049,0.10437,0.0066357
31,0.0095112,1.463,0.0070781,1.0891,0.10503,0.0074136
31,0.010343,1.5754,0.0073428,1.1293,0.10577,0.0077218
31,0.011175,1.6885,0.0076013,1.1688,0.10654,0.0057094
31,0.011943,1.8048,0.0077362,1.2049,0.10711,0.0136
31,0.01275,1.9266,0.0078345,1.2349,0.10847,0.14647
31,0.013575,2.0542,0.0079883,1.257,0.12312,0.21039
31,0.014428,2.1864,0.0081156,1.2707,0.14416,0.11118
31,0.015292,2.3221,0.0082076,1.2765,0.15528,0.040912
31,0.016178,2.4606,0.0082575,1.2763,0.15937,0.0026252
31,0.017096,2.6015,0.0083514,1.2733,0.15963,-0.01723
31,0.018012,2.7447,0.0084225,1.2705,0.15791,-0.029515
31,0.018955,2.89,0.0083036,1.2682,0.15496,-0.042537
31,0.019906,3.036,0.0081855,1.2648,0.1507,-0.051275
31,0.020745,3.1801,0.0082326,1.257,0.14558,-0.053075
31,0.021558,3.319,0.0084032,1.2431,0.14027,-0.04531
31,0.022428,3.4502,0.0086299,1.2245,0.13574,-0.039139
31,0.023253,3.572,0.0087911,1.2039,0.13182,-0.042268
31,0.024027,3.685,0.008806,1.1828,0.1276,-0.048256
31,0.024773,3.792,0.0086406,1.162,0.12277,-0.055038
31,0.025575,3.8973,0.0083195,1.1415,0.11727,-0.061999
31,0.026356,4.0039,0.007896,1.1209,0.11107,-0.069141
31,0.02695,4.1119,0.0073679,1.1003,0.10415,-0.075484
31,0.027547,4.218,0.0067599,1.08,0.096605,-0.079921
31,0.028409,4.3187,0.0061517,1.0613,0.088613,-0.082514
31,0.029556,4.4128,0.0055629,1.0457,0.080362,-0.083677
31,0.030834,4.5032,0.0049048,1.0341,0.071994,-0.085793
31,0.03201,4.5941,0.0039194,1.0274,0.063415,-0.091822
31,0.032904,4.6877,0.0023211,1.0259,0.054233,-0.10365
31,0.03346,4.7846,8.41E-05,1.0286,0.043868,-0.12131
31,0.033735,4.8845,-0.002576,1.0331,0.031737,-0.14292
31,0.033804,4.9866,-0.0032883,1.013,0.017444,-0.14357
31,0.033691,5.0906,-0.0039175,0.9913,0.0030873,-0.14282
31,0.033426,5.196,-0.0046117,0.96969,-0.011195,-0.14279
31,0.033049,5.3027,-0.0056331,0.95109,-0.025474,-0.14556
31,0.032684,5.4103,-0.0071179,0.93637,-0.04003,-0.15431
31,0.032237,5.5183,-0.0089377,0.92296,-0.055461,-0.16778
31,0.031091,5.6268,-0.01085,0.90711,-0.07224,-0.18047
31,0.028669,5.7367,-0.012643,0.88668,-0.090287,-0.19066
31,0.024941,5.8491,-0.01425,0.86121,-0.10935,-0.19846
31,0.020423,5.9635,-0.014387,0.81129,-0.1292,-0.19255
31,0.01978,6.03,-0.015181,0.80023,-0.14845,-0.098352
31,0.019115,6.0945,-0.015961,0.78694,-0.15829,-0.10118
31,0.018323,6.1574,-0.016744,0.77122,-0.16841,-0.10452
31,0.017142,6.2209,-0.017555,0.75274,-0.17886,-0.10856
31,0.01532,6.2855,-0.018482,0.73118,-0.18971,-0.11498
31,0.012959,6.3492,-0.019483,0.70624,-0.20121,-0.12258
31,0.01031,6.4083,-0.020101,0.67711,-0.21347,-0.12585
31,0.0076174,6.4611,-0.019757,0.64194,-0.22606,-0.12001
31,0.0049605,6.5071,-0.018164,0.5981,-0.23806,-0.10173
31,0.0049605,6.5071,-0.018164,0.5981,-0.24823,-0.10173
32,-0.0090984,9.0735,0.011112,-0.014707,-0.15713,0.021127
32,-0.0078738,9.0775,0.011808,-0.012216,-0.15502,0.020965
32,-0.0065872,9.0817,0.012271,-0.010301,-0.15292,0.020729
32,-0.0053358,9.086,0.012574,-0.0088436,-0.15085,0.020424
32,-0.0041193,9.0888,0.012784,-0.0076919,-0.14881,0.020282
32,-0.0029365,9.0883,0.012928,-0.0067688,-0.14678,0.020132
32,-0.0018183,9.0833,0.013008,-0.0060275,-0.14477,0.022896
32,-0.00076677,9.0755,0.013042,-0.0054174,-0.14248,0.030404
32,0.00021856,9.0677,0.013037,-0.0048876,-0.13944,0.04047
32,0.0011399,9.062,0.01295,-0.0043955,-0.13539,0.051502
32,0.0020134,9.0588,0.012766,-0.0039254,-0.13024,0.045497
32,0.00389,9.06,0.012525,-0.0057329,-0.12569,0.084428
32,0.0056267,9.0611,0.012162,-0.007778,-0.11725,0.11463
32,0.0072477,9.062,0.011755,-0.010001,-0.10578,0.13453
32,0.0087993,9.0627,0.011321,-0.011229,-0.092329,0.14691
32,0.010293,9.0633,0.010854,-0.0095573,-0.077638,0.15367
32,0.011714,9.0638,0.010358,-0.0038708,-0.062271,0.1563
32,0.013073,9.0643,0.0098392,0.0047738,-0.046641,0.15582
32,0.014369,9.0647,0.0093059,0.013821,-0.031059,0.15306
32,0.015506,9.0651,0.0087589,0.021227,-0.015753,0.1486
32,0.016434,9.0656,0.0081981,0.026474,-0.00089261,0.14251
32,0.017176,9.0661,0.0071045,0.028706,0.013358,0.13965
32,0.017736,9.0662,0.0060616,0.030533,0.027323,0.13666
32,0.018174,9.066,0.0050541,0.032064,0.040989,0.13319
32,0.018523,9.0664,0.0040561,0.033172,0.054308,0.12907
32,0.018772,9.0692,0.0030791,0.033839,0.067215,0.12466
32,0.018899,9.0756,0.0021458,0.034582,0.07968,0.11765
32,0.018912,9.0851,0.0012882,0.036742,0.091446,0.10604
32,0.01883,9.0954,0.00045363,0.041919,0.10205,0.090897
32,0.018658,9.1045,-0.00033546,0.05098,0.11114,0.072983
32,0.01841,9.1117,-0.0010212,0.063588,0.11844,0.052927
32,0.018099,9.1175,-0.0015884,0.078764,0.12373,0.0322
32,0.01775,9.1222,-0.0019919,0.096096,0.12695,0.013501
32,0.017356,9.1261,-0.0022664,0.11585,0.1283,-0.0020975
32,0.016911,9.1291,-0.0023883,0.138,0.12809,-0.014627
32,0.016452,9.131,-0.0024562,0.16186,0.12663,-0.02492
32,0.016005,9.133,-0.0029467,0.18704,0.12414,-0.036281
32,0.015649,9.1378,-0.0043396,0.21453,0.12051,-0.051771
32,0.015276,9.1485,-0.0070384,0.24609,0.11533,-0.073959
32,0.014835,9.1671,-0.011324,0.28277,0.10794,-0.10452
32,0.014392,9.1928,-0.017015,0.32433,0.097483,-0.14141
32,0.013999,9.2236,-0.023803,0.36986,0.083342,-0.18354
32,0.013753,9.2584,-0.031478,0.41853,0.064988,-0.23032
32,0.013641,9.2977,-0.039966,0.46969,0.041955,-0.28043
32,0.013746,9.3424,-0.049285,0.52278,0.013912,-0.33378
32,0.013859,9.3929,-0.059001,0.57702,-0.019466,-0.3879
32,0.013005,9.4497,-0.068441,0.63121,-0.058257,-0.43915
32,0.010232,9.5141,-0.076954,0.68348,-0.10217,-0.48417
32,0.0047534,9.5875,-0.083991,0.7319,-0.15059,-0.52042
32,-0.0039911,9.67,-0.089706,0.77535,-0.20263,-0.54849
33,-0.0018451,8.3503,0.0068186,0.02783,-0.032843,-0.046111
33,-0.0014332,8.3474,0.0069972,0.0293,-0.037454,-0.040893
33,-0.00084341,8.3454,0.0071622,0.027182,-0.041543,-0.035897
33,-0.00013589,8.3485,0.0074053,0.019072,-0.045133,-0.030582
33,0.00064953,8.3574,0.0076273,0.0068147,-0.048191,-0.025773
33,0.0014509,8.3687,0.0078302,-0.0051492,-0.050769,-0.021445
33,0.0022291,8.3782,0.0079995,-0.013663,-0.052913,-0.017637
33,0.0029759,8.3831,0.0081425,-0.018911,-0.054677,-0.01434
33,0.0036719,8.3838,0.0082719,-0.022698,-0.056111,-0.010404
33,0.0043339,8.3817,0.0083825,-0.02587,-0.057151,-0.0038049
33,0.0049736,8.3782,0.0084254,-0.028311,-0.057532,-0.070513
33,0.0058519,8.3826,0.0085884,-0.030504,-0.064583,-0.041386
33,0.0067495,8.383,0.0085791,-0.034382,-0.068722,-0.008224
33,0.0077817,8.3751,0.0084418,-0.043285,-0.069544,0.027578
33,0.0088331,8.3599,0.0082019,-0.057055,-0.066786,0.059461
33,0.0099003,8.3426,0.0079013,-0.07234,-0.06084,0.082252
33,0.010954,8.3285,0.0075817,-0.085434,-0.052615,0.097722
33,0.011997,8.3182,0.0072594,-0.094833,-0.042843,0.10772
33,0.013044,8.3095,0.0069404,-0.10218,-0.03207,0.11356
33,0.014082,8.3012,0.006436,-0.11081,-0.020715,0.115
33,0.015006,8.2937,0.0057358,-0.12389,-0.009215,0.11279
33,0.015744,8.2864,0.0049425,-0.14786,0.002064,0.11402
33,0.016315,8.2766,0.0043718,-0.17799,0.013466,0.11558
33,0.016748,8.262,0.004051,-0.2093,0.025024,0.1179
33,0.017053,8.2433,0.0037922,-0.23673,0.036814,0.11979
33,0.017253,8.2241,0.0034201,-0.25962,0.048794,0.12011
33,0.017393,8.2073,0.0029873,-0.27779,0.060805,0.11932
33,0.017495,8.1935,0.0023134,-0.2893,0.072737,0.11618
33,0.017553,8.1794,0.0013413,-0.29036,0.084355,0.10922
33,0.017206,8.1601,0.00042517,-0.27967,0.095277,0.09878
33,0.016445,8.1304,-0.0002932,-0.26001,0.10515,0.085405
33,0.015737,8.0869,-0.00089407,-0.23388,0.1137,0.069311
33,0.015493,8.027,-0.0013912,-0.20113,0.12063,0.050841
33,0.015884,7.9565,-0.0017695,-0.16074,0.12571,0.030658
33,0.016417,7.8864,-0.0020824,-0.11416,0.12878,0.011005
33,0.016741,7.8234,-0.0025651,-0.065848,0.12988,-0.0073574
33,0.016929,7.7729,-0.0031421,-0.019819,0.12914,-0.024043
33,0.016624,7.7396,-0.003218,0.022853,0.12674,-0.035246
33,0.015727,7.7288,-0.0028464,0.065874,0.12321,-0.041768
33,0.014932,7.7419,-0.0023153,0.11603,0.11904,-0.04603
33,0.014419,7.7737,-0.0015666,0.17959,0.11443,-0.047929
33,0.013956,7.8187,-0.00088795,0.26067,0.10964,-0.049705
33,0.013532,7.8744,-0.0012216,0.36223,0.10467,-0.057785
33,0.013209,7.9405,-0.0033205,0.47991,0.09889,-0.076904
33,0.012888,8.015,-0.0070706,0.60404,0.0912,-0.10551
33,0.012123,8.0924,-0.01243,0.72697,0.080649,-0.1425
33,0.011108,8.1677,-0.019306,0.84066,0.066399,-0.1869
33,0.011059,8.2392,-0.026948,0.93882,0.047709,-0.23374
33,0.01186,8.3112,-0.035139,1.0163,0.024336,-0.28141
33,0.012575,8.3921,-0.04441,1.0722,-0.0038053,-0.33332
34,-0.00095707,4.0798,0.00013006,-0.41121,-0.19549,0.011136
34,-0.00092402,4.0247,0.00014041,-0.43211,-0.19438,0.0015889
34,-0.00093181,3.9726,0.00015649,-0.44897,-0.19422,-0.0054053
34,-0.00092488,3.9239,0.00015555,-0.46305,-0.19476,-0.010892
34,-0.00090856,3.8785,0.00015296,-0.47397,-0.19585,-0.014266
34,-0.00088639,3.8364,0.00015811,-0.48089,-0.19727,-0.012579
34,-0.00086078,3.7975,0.00016014,-0.48331,-0.19853,-0.0051997
34,-0.00084882,3.7614,0.00015999,-0.48125,-0.19905,0.0056996
34,-0.00083188,3.7281,0.00015103,-0.47523,-0.19848,0.01847
34,-0.00082563,3.6972,0.00014996,-0.46631,-0.19664,0.032311
34,-0.00082701,3.6686,0.00014786,-0.45594,-0.1934,0.020641
34,-0.00080262,3.6045,0.00013581,-0.43986,-0.19134,0.054569
34,-0.00076928,3.541,0.0001763,-0.42415,-0.18588,0.078507
34,-0.00075486,3.4779,0.00022944,-0.40871,-0.17803,0.095126
34,-0.00074293,3.4163,0.00030101,-0.39344,-0.16852,0.10678
34,-0.0007199,3.3585,0.00038879,-0.37845,-0.15784,0.1149
34,-0.00070085,3.3065,0.00049068,-0.36396,-0.14635,0.12035
34,-0.00068509,3.2617,0.00061906,-0.35007,-0.13432,0.124
34,-0.00068521,3.2244,0.00075466,-0.33684,-0.12192,0.12615
34,-0.00067215,3.1938,0.00090362,-0.32425,-0.1093,0.12717
34,-0.00066135,3.1679,0.001063,-0.3123,-0.096584,0.1274
34,-0.00065241,3.1449,0.001215,-0.28219,-0.083844,0.13558
34,-0.00057921,3.1243,0.0013605,-0.25208,-0.070285,0.14292
34,-0.000466,3.1064,0.001527,-0.2218,-0.055993,0.15009
34,-0.00030654,3.0917,0.0016976,-0.19209,-0.040984,0.15641
34,-0.00010881,3.0795,0.001865,-0.16411,-0.025343,0.15935
34,0.00012058,3.0695,0.002043,-0.13889,-0.0094076,0.15707
34,0.00038931,3.0613,0.0022232,-0.11709,0.006299,0.14979
34,0.00067744,3.0544,0.0024183,-0.099028,0.021278,0.13886
34,0.0009816,3.0487,0.0025995,-0.084226,0.035164,0.12478
34,0.001299,3.044,0.0027822,-0.071271,0.047642,0.10967
34,0.0016275,3.0401,0.0029663,-0.05896,0.058609,0.096483
34,0.0019518,3.0369,0.0030989,-0.047177,0.068257,0.085422
34,0.0022991,3.0342,0.0031888,-0.03662,0.076799,0.076127
34,0.0026522,3.0321,0.0032303,-0.027879,0.084412,0.068158
34,0.0030101,3.0303,0.0032317,-0.02078,0.091228,0.061142
34,0.0033852,3.0287,0.0031934,-0.014914,0.097342,0.05475
34,0.0037613,3.0275,0.0031222,-0.010054,0.10282,0.049087
34,0.0041514,3.0263,0.0030304,-0.0060274,0.10773,0.044239
34,0.0045268,3.0254,0.0029282,-0.0026961,0.11215,0.040198
34,0.0049031,3.0254,0.0028173,5.98E-05,0.11617,0.03678
34,0.0052803,3.027,0.0026926,0.0023396,0.11985,0.033696
34,0.0056186,3.03,0.0025697,0.0042257,0.12322,0.031281
34,0.0059116,3.0332,0.002422,0.0057794,0.12635,0.028679
34,0.0061541,3.0359,0.0022669,0.0070581,0.12921,0.025473
34,0.0063546,3.038,0.0021057,0.0081226,0.13176,0.021112
34,0.0065074,3.0397,0.0019328,0.0090031,0.13387,0.01657
34,0.0066338,3.0411,0.0017569,0.0097316,0.13553,0.013014
34,0.0067383,3.0423,0.0015719,0.010407,0.13683,0.0094536
34,0.0068379,3.0433,0.0013991,0.010965,0.13778,0.0057404
34,0.0069335,3.0441,0.0012232,0.011013,0.13835,0.0015077
34,0.0070126,3.0448,0.0010383,0.010249,0.1385,-0.0034486
34,0.0070912,3.0453,0.00085894,0.0088208,0.13816,-0.0085296
34,0.0071431,3.0458,0.00070399,0.0072314,0.1373,-0.012956
34,0.007186,3.0462,0.00057581,0.0059231,0.13601,-0.0173
34,0.0072214,3.0465,0.00046977,0.0048934,0.13428,-0.021972
34,0.0072508,3.0468,0.00039521,0.00391,0.13208,-0.026135
34,0.0072751,3.047,0.00026772,0.0029582,0.12947,-0.030189
34,0.0072952,3.0471,0.00016225,0.0025197,0.12645,-0.034455
34,0.007325,3.0473,0.00046327,0.0034533,0.123,-0.037067
