veh_id,target_vel_x,target_vel_y,target_acc_x,target_acc_y,ref_heading,yaw_rate
1,0.0546258,13.7178,-0.030194,0.20063,0.29999,-0.49812
1,0.0444007,13.7371,-0.037739,0.24264,0.25018,-0.52835
1,0.0319668,13.7574,-0.043382,0.28431,0.19734,-0.54083
1,0.0191272,13.7819,-0.048801,0.32489,0.14326,-0.5386
1,0.00718924,13.8133,-0.054896,0.36434,0.089402,-0.52641
1,-0.00323953,13.8525,-0.060741,0.40247,0.036761,-0.50581
1,-0.0124987,13.8985,-0.065866,0.4378,-0.013819,-0.48115
1,-0.0209483,13.9499,-0.070119,0.4678,-0.061934,-0.45595
1,-0.028715,14.0056,-0.071847,0.49096,-0.10753,-0.41919
1,-0.0359298,14.0648,-0.069861,0.50815,-0.14945,-0.36498
1,-0.0427014,14.127,-0.063717,0.52157,-0.18595,-0.29768
1,-0.0490666,14.1915,-0.053633,0.53232,-0.21571,-0.22033
1,-0.0551222,14.2581,-0.041256,0.5387,-0.23775,-0.13739
1,-0.0609214,14.3266,-0.028569,0.53735,-0.25149,-0.053306
1,-0.0664693,14.3967,-0.017152,0.52555,-0.25682,0.027774
1,-0.0716248,14.4672,-0.0075559,0.50264,-0.25404,0.1005
1,-0.0764821,14.5364,0.00061975,0.46999,-0.24399,0.1638
1,-0.0802898,14.6018,0.0077649,0.42958,-0.22761,0.21823
1,-0.0813339,14.6612,0.014051,0.383,-0.20579,0.26434
1,-0.078973,14.7141,0.01964,0.33133,-0.17935,0.30644
1,-0.0728081,14.7609,0.024658,0.27542,-0.14871,0.34498
1,-0.0628645,14.8018,0.029178,0.21601,-0.11421,0.37396
1,-0.050545,14.8348,0.033298,0.15369,-0.076815,0.38537
1,-0.0380107,14.8566,0.037096,0.088859,-0.038277,0.37635
1,-0.0271149,14.8644,0.040593,0.021949,-0.00064292,0.35116
1,-0.0183512,14.8578,0.043762,-0.046447,0.034473,0.317
1,-0.0112592,14.8385,0.046673,-0.11516,0.066174,0.282
1,-0.00541853,14.8091,0.0487,-0.18222,0.094373,0.2497
1,-0.000613004,14.7716,0.048988,-0.24541,0.11934,0.21642
1,0.00334931,14.7275,0.0477,-0.30315,0.14099,0.1805
1,0.00661406,14.6778,0.0446,-0.35507,0.15904,0.14114
1,0.00928857,14.6235,0.039443,-0.40124,0.17315,0.097158
1,0.0114748,14.5655,0.032848,-0.44079,0.18286,0.050502
1,0.0132702,14.5043,0.026049,-0.47182,0.18792,0.0054875
1,0.0147161,14.4406,0.020095,-0.49274,0.18846,-0.033908
1,0.015899,14.3743,0.015117,-0.50337,0.18507,-0.06763
1,0.0168644,14.3061,0.010907,-0.50516,0.17831,-0.097292
1,0.0171103,14.2373,0.0072722,-0.50003,0.16858,-0.12283
1,0.0166425,14.1704,0.0041076,-0.48932,0.1563,-0.14456
1,0.0164266,14.1078,0.0012198,-0.47355,0.14184,-0.16493
1,0.0163927,14.0508,-0.0013337,-0.45284,0.12535,-0.18352
1,0.0160225,13.9993,-0.003433,-0.42733,0.107,-0.19627
1,0.0151503,13.9532,-0.0053079,-0.39743,0.08737,-0.20004
1,0.0140865,13.9129,-0.0077276,-0.3635,0.067366,-0.19705
1,0.0130749,13.8789,-0.011276,-0.32545,0.047661,-0.19167
1,0.0118826,13.851,-0.01585,-0.28272,0.028494,-0.18661
1,0.010554,13.8281,-0.021694,-0.23519,0.0098333,-0.18653
1,0.0091259,13.809,-0.02305,-0.19923,-0.0088197,-0.17313
1,0.00760225,13.793,-0.024104,-0.16382,-0.026133,-0.1616
1,0.00578898,13.7804,-0.025253,-0.13018,-0.042293,-0.1518
2,-0.125226,12.5199,-0.042376,0.15928,-0.10303,-0.26412
2,-0.133921,12.538,-0.036044,0.14874,-0.12944,-0.23044
2,-0.143141,12.5527,-0.029246,0.1302,-0.15249,-0.19331
2,-0.151506,12.5644,-0.021035,0.10428,-0.17182,-0.14765
2,-0.156043,12.5734,-0.011676,0.071804,-0.18658,-0.095115
2,-0.155374,12.5797,-0.0026772,0.034223,-0.1961,-0.044362
2,-0.150991,12.5836,0.0043662,-0.0057712,-0.20053,-0.0034676
2,-0.146075,12.5854,0.010009,-0.04426,-0.20088,0.032448
2,-0.141942,12.5852,0.015762,-0.077173,-0.19763,0.071883
2,-0.137286,12.5822,0.021602,-0.10195,-0.19045,0.11418
2,-0.131789,12.5743,0.026913,-0.11799,-0.17903,0.15455
2,-0.126228,12.5596,0.031701,-0.12617,-0.16357,0.18958
2,-0.119614,12.5377,0.036525,-0.12793,-0.14461,0.22037
2,-0.111049,12.509,0.040081,-0.12435,-0.12258,0.242
2,-0.100883,12.4739,0.039416,-0.11606,-0.098378,0.24262
2,-0.0911182,12.4334,0.033226,-0.1035,-0.074115,0.21914
2,-0.084277,12.3905,0.023381,-0.087018,-0.052201,0.18029
2,-0.0801442,12.3497,0.013683,-0.067203,-0.034172,0.14004
2,-0.0765936,12.3162,0.0061993,-0.044704,-0.020168,0.10687
2,-0.0734063,12.2939,-9.02E-05,-0.019576,-0.0094812,0.077353
2,-0.0714012,12.284,-0.0060501,0.008879,-0.0017458,0.04785
2,-0.0705191,12.2857,-0.011323,0.041428,0.0030392,0.020189
2,-0.070092,12.2968,-0.016547,0.078101,0.0050581,-0.0083931
2,-0.0713444,12.3157,-0.02229,0.1187,0.0042188,-0.041179
2,-0.077211,12.3413,-0.028351,0.16338,0.0001009,-0.078536
2,-0.0889215,12.3727,-0.033286,0.21168,-0.0077527,-0.11282
2,-0.104229,12.4096,-0.035045,0.26187,-0.019035,-0.13448
2,-0.11871,12.451,-0.033658,0.31104,-0.032483,-0.14778
2,-0.129544,12.4958,-0.031016,0.35538,-0.047261,-0.164
2,-0.137466,12.5431,-0.027561,0.39173,-0.063661,-0.18367
2,-0.143889,12.592,-0.022715,0.41844,-0.082028,-0.19986
2,-0.148873,12.6424,-0.016587,0.43576,-0.10201,-0.20595
2,-0.152707,12.6939,-0.0096414,0.44545,-0.12261,-0.20101
2,-0.155629,12.7464,-0.0013622,0.449,-0.14271,-0.18499
2,-0.157585,12.8006,0.0096526,0.44729,-0.16121,-0.15504
2,-0.15769,12.8568,0.023977,0.44106,-0.17671,-0.11404
2,-0.154367,12.9142,0.040329,0.43093,-0.18812,-0.067803
2,-0.14746,12.9718,0.056034,0.41781,-0.1949,-0.020655
2,-0.138626,13.027,0.069053,0.40277,-0.19696,0.020325
2,-0.128528,13.0773,0.079303,0.38671,-0.19493,0.052048
2,-0.116831,13.1208,0.087461,0.37008,-0.18973,0.077015
2,-0.103692,13.1572,0.093808,0.35302,-0.18202,0.096049
2,-0.0893748,13.1877,0.098736,0.33563,-0.17242,0.11009
2,-0.0740689,13.2137,0.10248,0.31786,-0.16141,0.12043
2,-0.0579057,13.2358,0.10503,0.29938,-0.14937,0.12801
2,-0.0409674,13.2548,0.10595,0.28006,-0.13657,0.12978
2,-0.0235723,13.2714,0.10456,0.26015,-0.12359,0.12302
2,-0.00664156,13.2866,0.10101,0.24018,-0.11129,0.11325
2,0.00856251,13.3014,0.096324,0.22125,-0.099963,0.10868
2,0.0211404,13.3165,0.090913,0.20466,-0.089095,0.10985
3,-0.117,12.0559,0.023575,0.11475,-0.16387,-0.092028
3,-0.11488,12.0626,0.023864,0.13842,-0.17307,-0.088432
3,-0.112928,12.0688,0.023759,0.16239,-0.18191,-0.084172
3,-0.11113,12.0742,0.023394,0.1859,-0.19033,-0.077767
3,-0.109472,12.0792,0.022857,0.20874,-0.19811,-0.070221
3,-0.108179,12.0844,0.022204,0.23066,-0.20513,-0.058995
3,-0.107189,12.0912,0.021486,0.25156,-0.21103,-0.2025
3,-0.104403,12.1018,0.020277,0.28097,-0.23128,-0.14818
3,-0.101164,12.1195,0.019087,0.31129,-0.2461,-0.084071
3,-0.0977731,12.1475,0.017929,0.34245,-0.2545,-0.025585
3,-0.0945733,12.1862,0.016821,0.37436,-0.25706,0.024565
3,-0.0917814,12.2332,0.015767,0.40691,-0.2546,0.066407
3,-0.0895639,12.2854,0.01475,0.44011,-0.24796,0.10284
3,-0.0878084,12.3416,0.013778,0.47414,-0.23768,0.13544
3,-0.086435,12.4013,0.012809,0.5089,-0.22414,0.16025
3,-0.0853911,12.4638,0.01206,0.54368,-0.20811,0.17919
3,-0.0846064,12.5287,0.011547,0.57742,-0.19019,0.19675
3,-0.0840494,12.5955,0.010362,0.60882,-0.17052,0.21092
3,-0.0836807,12.664,0.009276,0.63593,-0.14943,0.226
3,-0.0834679,12.7338,0.008141,0.65644,-0.12683,0.23888
3,-0.0833576,12.8047,0.0067612,0.66935,-0.10294,0.24858
3,-0.0833453,12.8764,0.0053367,0.67553,-0.07808,0.25535
3,-0.0834273,12.949,0.0043886,0.67656,-0.052545,0.2599
3,-0.0835741,13.0225,0.003874,0.6731,-0.026556,0.26074
3,-0.0838535,13.097,0.0033102,0.66513,-0.00048184,0.25725
3,-0.0840583,13.1717,0.0022053,0.65257,0.025243,0.24399
3,-0.0840961,13.2461,0.0002779,0.63552,0.049642,0.21541
3,-0.0836799,13.3195,-0.0016917,0.61429,0.071183,0.17526
3,-0.0826117,13.3913,-0.0025709,0.5891,0.088709,0.13585
3,-0.081491,13.4604,-0.0019426,0.56013,0.10229,0.10643
3,-0.0810509,13.5249,-0.00031719,0.5279,0.11294,0.083005
3,-0.0811081,13.5843,0.001396,0.4934,0.12124,0.060458
3,-0.0807868,13.6385,0.0027672,0.45769,0.12728,0.036946
3,-0.0800603,13.6878,0.0042174,0.42129,0.13098,0.016984
3,-0.0798147,13.7316,0.0062003,0.38438,0.13268,0.0061914
3,-0.0809804,13.769,0.0084001,0.34705,0.1333,0.0017244
3,-0.0840506,13.7997,0.010681,0.3092,0.13347,-0.00086565
3,-0.0874328,13.8241,0.012633,0.27045,0.13338,-0.0054493
3,-0.0888226,13.8422,0.014018,0.23053,0.13284,-0.0093872
3,-0.087353,13.854,0.015413,0.19019,0.1319,-0.010055
3,-0.0839919,13.8604,0.017456,0.1504,0.13089,-0.0057404
3,-0.0805533,13.8632,0.019956,0.1111,0.13032,0.0041337
3,-0.0778929,13.8643,0.022248,0.071907,0.13073,0.017594
3,-0.0751392,13.8651,0.024446,0.033564,0.13249,0.035834
3,-0.0714529,13.8657,0.027482,-0.0018868,0.13607,0.06105
3,-0.0672581,13.8658,0.032232,-0.032393,0.14218,0.096897
3,-0.062735,13.8645,0.039135,-0.05734,0.15187,0.14427
3,-0.0584141,13.8604,0.046557,-0.076892,0.1663,0.1941
3,-0.0545762,13.8524,0.052151,-0.090974,0.18571,0.23537
3,-0.0506642,13.8408,0.055029,-0.099544,0.20924,0.26364
4,0.0028362,4.2506,-0.0036295,0.23263,-0.050581,-0.056103
4,0.0023069,4.2871,-0.0034304,0.19397,-0.056191,-0.05276
4,0.001224,4.3114,-0.0031077,0.15236,-0.061467,-0.050187
4,0.00020969,4.3248,-0.0030052,0.10627,-0.066486,-0.054485
4,-0.00051095,4.3284,-0.0029534,0.055101,-0.071934,-0.058677
4,-0.00096233,4.3221,-0.0028513,-0.00087166,-0.077802,-0.056891
4,-0.0015727,4.3056,-0.0027141,-0.060831,-0.083491,-0.051459
4,-0.0024987,4.2797,-0.0027521,-0.12323,-0.088637,-0.048652
4,-0.0034755,4.2472,-0.0032244,-0.18548,-0.093502,-0.051917
4,-0.0040466,4.2115,-0.003773,-0.24413,-0.098694,-0.058809
4,-0.0042821,4.175,-0.0039374,-0.29647,-0.10457,-0.064346
4,-0.0042532,4.138,-0.0036192,-0.34131,-0.11101,-0.062538
4,-0.0040055,4.0988,-0.0030336,-0.37884,-0.11726,-0.051553
4,-0.0039981,4.0555,-0.0025886,-0.40967,-0.12242,-0.039422
4,-0.004163,4.0069,-0.0025034,-0.43343,-0.12636,-0.033325
4,-0.0042863,3.9532,-0.0026304,-0.44839,-0.12969,-0.030626
4,-0.0043752,3.8951,-0.0025117,-0.4528,-0.13276,-0.024181
4,-0.0046329,3.8344,-0.0019725,-0.44642,-0.13517,-0.011288
4,-0.0050567,3.7732,-0.0011975,-0.43103,-0.1363,0.0054484
4,-0.0051836,3.7139,-0.00068133,-0.40978,-0.13576,0.01858
4,-0.0050385,3.6576,-0.00049784,-0.38516,-0.1339,0.026807
4,-0.0049316,3.6045,-0.00056979,-0.3578,-0.13122,0.031181
4,-0.0048431,3.5537,-0.00085306,-0.3266,-0.1281,0.032139
4,-0.0049674,3.5055,-0.00089656,-0.2899,-0.12489,0.036655
4,-0.0055177,3.4616,-0.00075486,-0.24686,-0.12122,0.043802
4,-0.0062231,3.4254,-0.0006508,-0.19777,-0.11684,0.049469
4,-0.006596,3.4,-0.00057788,-0.14365,-0.11189,0.053578
4,-0.0064438,3.3869,-0.00043857,-0.08593,-0.10654,0.057758
4,-0.0058704,3.3851,-0.00022462,-0.02616,-0.10076,0.06227
4,-0.0054092,3.3919,-0.00016608,0.034178,-0.094534,0.063755
4,-0.0052778,3.4047,-0.00025875,0.077807,-0.088158,0.061631
4,-0.0053928,3.4224,-0.0003354,0.12245,-0.081995,0.059433
4,-0.0057117,3.4456,-0.00040631,0.16871,-0.076052,0.057077
4,-0.0057912,3.4756,-0.00024325,0.21652,-0.070344,0.058026
4,-0.0056728,3.5132,0.00027063,0.26442,-0.064542,0.064285
4,-0.0055879,3.5577,0.0008747,0.30981,-0.058113,0.071727
4,-0.0055309,3.6078,0.0013119,0.3501,-0.050941,0.076015
4,-0.0055101,3.6625,0.0014602,0.38348,-0.043339,0.075152
4,-0.005506,3.7209,0.0011977,0.40919,-0.035824,0.067646
4,-0.0055157,3.7822,0.00096715,0.40578,-0.029059,0.059845
4,-0.005556,3.8132,0.00094887,0.42043,-0.023075,0.031032
4,-0.0056024,3.8494,0.0010655,0.43396,-0.019972,0.030819
4,-0.0056558,3.8911,0.0013157,0.44584,-0.01689,0.032509
4,-0.0054539,3.9385,0.0014477,0.4549,-0.013639,0.031925
4,-0.0049765,3.9904,0.0014652,0.46019,-0.010446,0.029071
4,-0.0044737,4.045,0.0015093,0.46131,-0.0075391,0.026511
4,-0.0039721,4.1002,0.0015815,0.45821,-0.0048881,0.024552
4,-0.0035233,4.1539,0.0016959,0.45081,-0.0024329,0.023355
4,-0.0034749,4.2035,0.0018464,0.43872,-9.74E-05,0.022772
4,-0.0034749,4.2035,0.0018464,0.43872,0.0021798,0.022772
5,0.0566294,15.825,-0.087803,0.28166,0.2606,-0.57545
5,0.0365685,15.8751,-0.089694,0.26562,0.20305,-0.57369
5,0.019104,15.9236,-0.088009,0.24185,0.14568,-0.55409
5,0.00293187,15.9668,-0.085442,0.21009,0.090275,-0.52873
5,-0.0118815,16.0035,-0.084254,0.17042,0.037402,-0.5076
5,-0.0250312,16.0338,-0.083732,0.12424,-0.013358,-0.4887
5,-0.0362913,16.0577,-0.080259,0.074789,-0.062228,-0.45904
5,-0.0454222,16.0738,-0.070496,0.025702,-0.10813,-0.40582
5,-0.0524231,16.0802,-0.054963,-0.021593,-0.14871,-0.32968
5,-0.0566616,16.0753,-0.03796,-0.068589,-0.18168,-0.24576
5,-0.0563906,16.0587,-0.023592,-0.1174,-0.20626,-0.17056
5,-0.0505858,16.0314,-0.012877,-0.16765,-0.22331,-0.10838
5,-0.0410848,15.9949,-0.0037427,-0.21621,-0.23415,-0.050601
5,-0.0305004,15.9505,0.0050905,-0.25956,-0.23921,0.0085439
5,-0.0208361,15.8998,0.013378,-0.29591,-0.23836,0.066545
5,-0.0135518,15.8452,0.020676,-0.32526,-0.2317,0.11962
5,-0.00814428,15.7901,0.026811,-0.34829,-0.21974,0.16759
5,-0.00313118,15.7375,0.031611,-0.36522,-0.20298,0.20979
5,0.00201632,15.688,0.035114,-0.37576,-0.182,0.24431
5,0.00648529,15.6396,0.037045,-0.37944,-0.15757,0.2669
5,0.00944528,15.5902,0.036556,-0.3762,-0.13088,0.27232
5,0.0108147,15.5398,0.033177,-0.36675,-0.10365,0.25868
5,0.0116186,15.4912,0.027847,-0.35209,-0.077781,0.22998
5,0.0131128,15.4477,0.021879,-0.33299,-0.054784,0.19402
5,0.0148754,15.4117,0.016185,-0.30985,-0.035381,0.15791
5,0.0163204,15.3833,0.011632,-0.28315,-0.019591,0.12714
5,0.0173315,15.3611,0.0080831,-0.25418,-0.0068772,0.10276
5,0.0177994,15.3434,0.0047982,-0.22499,0.0033989,0.080749
5,0.0178048,15.3287,0.0013502,-0.19679,0.011474,0.058072
5,0.0174276,15.3164,-0.0021932,-0.168,0.017281,0.034222
5,0.0167207,15.3063,-0.0041909,-0.14254,0.020703,0.016161
5,0.0157674,15.2979,-0.0054561,-0.11634,0.022319,0.00091595
5,0.0146102,15.2907,-0.0065191,-0.09068,0.022411,-0.013462
5,0.013258,15.2845,-0.0080125,-0.067334,0.021065,-0.029268
5,0.0115339,15.2801,-0.0097331,-0.047758,0.018138,-0.045408
5,0.0097128,15.2789,-0.011409,-0.032377,0.013597,-0.061441
5,0.00802196,15.2818,-0.012878,-0.020472,0.007453,-0.07739
5,0.00646524,15.2875,-0.01396,-0.010683,-0.00028604,-0.092021
5,0.00471674,15.2944,-0.014704,-0.0017896,-0.0094881,-0.10431
5,0.00209885,15.3037,-0.014515,0.0043408,-0.01992,-0.10978
5,0.00106344,15.3052,-0.014907,0.0098939,-0.030897,-0.069363
5,-9.75E-05,15.3072,-0.015205,0.015115,-0.037833,-0.073189
5,-0.00141958,15.3098,-0.015419,0.020243,-0.045152,-0.072883
5,-0.00291216,15.313,-0.015538,0.025358,-0.052441,-0.069313
5,-0.00459078,15.3162,-0.015424,0.029989,-0.059372,-0.06363
5,-0.00649772,15.3185,-0.015225,0.03298,-0.065735,-0.05763
5,-0.00842456,15.3202,-0.015095,0.033326,-0.071498,-0.053411
5,-0.0101203,15.322,-0.015056,0.031321,-0.076839,-0.050903
5,-0.0116022,15.3251,-0.014835,0.027891,-0.081929,-0.048214
5,-0.0116022,15.3251,-0.014835,0.027891,-0.086751,-0.048214
6,0.0540426,15.0753,-0.032569,0.080756,0.089337,0.014063
6,0.0498148,15.0947,-0.031616,0.083734,0.090743,0.017059
6,0.0460144,15.1161,-0.030374,0.08619,0.092449,0.015153
6,0.0425678,15.1369,-0.028892,0.088156,0.093964,0.010548
6,0.0393348,15.1551,-0.027231,0.089849,0.095019,0.0039324
6,0.0365286,15.1701,-0.025403,0.091756,0.095412,-0.0032764
6,0.0342203,15.1823,-0.023437,0.093985,0.095084,-0.0089725
6,0.0323239,15.1922,-0.021442,0.095816,0.094187,-0.0131
6,0.0307682,15.2004,-0.019621,0.095915,0.092877,-0.017293
6,0.0294944,15.2073,-0.018061,0.093115,0.091148,-0.022141
6,0.0284405,15.2129,-0.016593,0.087166,0.088934,-0.027079
6,0.0275556,15.2176,-0.015214,0.078711,0.086226,-0.032177
6,0.0268367,15.2215,-0.014113,0.068992,0.083008,-0.038225
6,0.0262551,15.2245,-0.013248,0.059444,0.079186,-0.045074
6,0.0257608,15.2271,-0.012342,0.051085,0.074678,-0.051656
6,0.0253519,15.2299,-0.01177,0.044235,0.069513,-0.059432
6,0.0249215,15.2337,-0.012672,0.038641,0.06357,-0.072862
6,0.0242627,15.2383,-0.01586,0.033823,0.056283,-0.094894
6,0.023336,15.2429,-0.021031,0.029672,0.046794,-0.12313
6,0.0221876,15.2466,-0.0265,0.027436,0.034481,-0.14946
6,0.020856,15.2496,-0.0308,0.028968,0.019535,-0.16725
6,0.0193858,15.2521,-0.033357,0.035725,0.0028104,-0.17451
6,0.0177878,15.2541,-0.033505,0.049027,-0.01464,-0.16977
6,0.0160711,15.2558,-0.030969,0.070002,-0.031617,-0.15265
6,0.0146508,15.2573,-0.026179,0.097804,-0.046882,-0.12542
6,0.0129889,15.2586,-0.020209,0.12908,-0.059424,-0.093232
6,0.00887636,15.2595,-0.01408,0.16057,-0.068747,-0.061023
6,0.000604278,15.2599,-0.0083902,0.19094,-0.07485,-0.03157
6,-0.0112931,15.2598,-0.0034926,0.22062,-0.078007,-0.0059858
6,-0.0235047,15.2621,0.0008684,0.25016,-0.078605,0.016893
6,-0.0331594,15.2709,0.0021612,0.26089,-0.076916,0.025964
6,-0.0391591,15.2891,0.0036885,0.27344,-0.07432,0.035573
6,-0.0401739,15.3195,0.0054642,0.28802,-0.070762,0.045932
6,-0.0356828,15.3645,0.0075018,0.30487,-0.066169,0.057128
6,-0.0265975,15.4227,0.0093649,0.32428,-0.060456,0.06763
6,-0.015067,15.4881,0.011708,0.34673,-0.053693,0.080001
6,-0.00323806,15.5549,0.017404,0.37309,-0.045693,0.10478
6,0.00748221,15.6202,0.029249,0.40478,-0.035216,0.15186
6,0.0163508,15.6841,0.047603,0.44274,-0.02003,0.22149
6,0.0239244,15.7469,0.053709,0.44156,0.002119,0.2438
6,0.0251784,15.7714,0.061617,0.46022,0.026499,0.11992
6,0.0267627,15.799,0.068373,0.47568,0.038491,0.14373
6,0.0287163,15.8302,0.072992,0.48573,0.052864,0.16017
6,0.0310747,15.8655,0.074747,0.48796,0.068881,0.16634
6,0.0333806,15.9058,0.073673,0.48173,0.085515,0.16198
6,0.036405,15.952,0.0707,0.46943,0.10171,0.15008
6,0.0436837,16.0057,0.067039,0.45416,0.11672,0.13456
6,0.059103,16.0694,0.063692,0.43756,0.13018,0.11854
6,0.0839127,16.1453,0.06142,0.41926,0.14203,0.10431
6,0.0839127,16.1453,0.06142,0.41926,0.15246,0.10431
7,0.0036404,3.4686,0.002013,0.36221,0.006979,0.025229
7,0.0033282,3.5029,0.0019713,0.39235,0.0095019,0.015901
7,0.0035476,3.5383,0.0023748,0.41795,0.011092,0.015397
7,0.0040793,3.576,0.0032838,0.43791,0.012632,0.023148
7,0.0044812,3.6153,0.0038973,0.4512,0.014946,0.027536
7,0.004788,3.6548,0.0037307,0.45755,0.0177,0.022454
7,0.0050406,3.6934,0.0031009,0.45792,0.019945,0.012452
7,0.0052512,3.7304,0.0024858,0.45465,0.021191,0.0038829
7,0.0054142,3.7657,0.0021267,0.45031,0.021579,-0.00057271
7,0.005541,3.7992,0.0019592,0.44635,0.021522,-0.0022807
7,0.0056534,3.8308,0.0019098,0.44278,0.021294,0.021721
7,0.0058088,3.9001,0.0021653,0.4434,0.023466,0.024642
7,0.0064902,3.9701,0.0019732,0.44146,0.02593,0.021021
7,0.0079094,4.0378,0.001205,0.4362,0.028032,0.0098084
7,0.0090966,4.1002,0.00010794,0.42928,0.029013,-0.005062
7,0.0092364,4.1549,-0.00084595,0.42323,0.028507,-0.028029
7,0.0086019,4.2012,-0.0012857,0.42024,0.025704,-0.05708
7,0.0078663,4.2415,-0.0014463,0.42147,0.019996,-0.076631
7,0.0074684,4.2791,-0.0016328,0.42688,0.012333,-0.077715
7,0.007363,4.3166,-0.0018489,0.43597,0.0045612,-0.070189
7,0.00746,4.3541,-0.0021037,0.44815,-0.0024577,-0.065197
7,0.0076587,4.3897,-0.0024116,0.44315,-0.0089774,-0.062723
7,0.0074941,4.4212,-0.0030085,0.43932,-0.01525,-0.06524
7,0.0064892,4.4483,-0.0040025,0.43779,-0.021774,-0.074045
7,0.0046971,4.4738,-0.0048906,0.43994,-0.029178,-0.081792
7,0.0030961,4.5013,-0.0052633,0.44678,-0.037357,-0.082761
7,0.0024692,4.5338,-0.0052689,0.45845,-0.045634,-0.079114
7,0.0023585,4.5734,-0.0052407,0.47375,-0.053545,-0.075586
7,0.0021486,4.6195,-0.0053818,0.49081,-0.061103,-0.074703
7,0.0018433,4.6711,-0.0056697,0.50825,-0.068574,-0.07582
7,0.0014459,4.7271,-0.0060461,0.52594,-0.076156,-0.078222
7,0.00098558,4.7864,-0.0064298,0.54491,-0.083978,-0.080799
7,0.00047313,4.8487,-0.0065893,0.56625,-0.092058,-0.080674
7,-9.56E-05,4.9134,-0.0060237,0.58947,-0.10013,-0.072337
7,-0.00068452,4.9801,-0.0046608,0.612,-0.10736,-0.055189
7,-0.0012902,5.0484,-0.0037504,0.63113,-0.11288,-0.039335
7,-0.001936,5.1181,-0.0040108,0.6452,-0.11681,-0.031591
7,-0.0026151,5.189,-0.0043973,0.65379,-0.11997,-0.027627
7,-0.0032953,5.2607,-0.0043946,0.65758,-0.12273,-0.026684
7,-0.0039765,5.3331,-0.0047477,0.65761,-0.1254,-0.03255
7,-0.0046321,5.406,-0.0061322,0.65555,-0.12866,-0.046989
7,-0.0052009,5.4795,-0.0083767,0.65348,-0.13336,-0.068024
7,-0.0056845,5.5537,-0.010641,0.65318,-0.14016,-0.087784
7,-0.0055582,5.6273,-0.01287,0.65612,-0.14894,-0.1059
7,-0.0046245,5.6978,-0.015438,0.6628,-0.15953,-0.12589
7,-0.0044048,5.7635,-0.018339,0.67265,-0.17212,-0.14772
7,-0.0055524,5.8243,-0.021502,0.68495,-0.18689,-0.17052
7,-0.006436,5.8809,-0.024876,0.69923,-0.20394,-0.19035
7,-0.0066405,5.9347,-0.028437,0.71516,-0.22297,-0.20591
7,-0.0076521,5.9864,-0.032179,0.73253,-0.24356,-0.22326
8,0.0236948,10.9157,-0.016559,-0.30749,-0.1156,0.17078
8,0.0216553,10.8756,-0.01489,-0.29123,-0.098522,0.175
8,0.0203629,10.8398,-0.01316,-0.27425,-0.081023,0.18556
8,0.0196887,10.8096,-0.011479,-0.25663,-0.062467,0.1965
8,0.0191308,10.7849,-0.009977,-0.23843,-0.042817,0.1989
8,0.0186562,10.7647,-0.0086617,-0.21976,-0.022926,0.19363
8,0.0182504,10.748,-0.0074881,-0.20078,-0.0035631,0.18317
8,0.0179278,10.7342,-0.0064118,-0.18154,0.014754,0.16872
8,0.017661,10.7228,-0.0054359,-0.16187,0.031626,0.14681
8,0.0174403,10.7133,-0.0045694,-0.14159,0.046308,0.11967
8,0.0172708,10.7055,-0.0036156,-0.12099,0.058275,0.096762
8,0.0171175,10.699,-0.0026818,-0.10101,0.067951,0.080424
8,0.0169906,10.6937,-0.0022251,-0.082893,0.075994,0.066012
8,0.0168856,10.6892,-0.0021764,-0.067449,0.082595,0.050374
8,0.0167857,10.6855,-0.0022743,-0.054792,0.087632,0.033937
8,0.0167029,10.6825,-0.0024804,-0.044479,0.091026,0.016773
8,0.0166345,10.68,-0.0027692,-0.035967,0.092703,-0.00075411
8,0.0165911,10.6779,-0.0031464,-0.028912,0.092628,-0.017712
8,0.0165551,10.6761,-0.0035967,-0.023076,0.090857,-0.034138
8,0.0165122,10.6746,-0.0041008,-0.018248,0.087443,-0.048327
8,0.0164636,10.6737,-0.0046494,-0.014247,0.08261,-0.061518
8,0.0162917,10.6736,-0.0052217,-0.01093,0.076458,-0.07567
8,0.0159126,10.6741,-0.00584,-0.008187,0.068891,-0.090725
8,0.0153358,10.6748,-0.0064897,-0.0059173,0.059819,-0.10422
8,0.0145822,10.6753,-0.0071456,-0.0040397,0.049397,-0.11286
8,0.0136955,10.6757,-0.0078198,-0.0024864,0.038111,-0.11693
8,0.0127119,10.6761,-0.0085158,-0.0011948,0.026418,-0.11786
8,0.011635,10.6764,-0.0092363,-0.00013952,0.014632,-0.11648
8,0.0104676,10.6766,-0.009964,0.00066771,0.0029844,-0.11142
8,0.0092387,10.6768,-0.010691,0.0011776,-0.0081577,-0.10417
8,0.00797197,10.677,-0.011219,0.0017079,-0.018574,-0.097786
8,0.00667396,10.6771,-0.011677,0.0015729,-0.028353,-0.09447
8,0.00531059,10.6773,-0.011964,0.0008407,-0.0378,-0.092771
8,0.00390631,10.6774,-0.012088,-0.00011529,-0.047077,-0.090604
8,0.00249452,10.6775,-0.012061,-0.00093599,-0.056137,-0.087216
8,0.00106334,10.6775,-0.011914,-0.0015806,-0.064859,-0.083072
8,-0.000397031,10.6776,-0.011681,-0.0021388,-0.073166,-0.078559
8,-0.00188155,10.6776,-0.01137,-0.0026261,-0.081022,-0.074217
8,-0.0033729,10.6774,-0.010976,-0.0030564,-0.088444,-0.069867
8,-0.00486988,10.677,-0.010362,-0.0031547,-0.09543,-0.065277
8,-0.00597438,10.6772,-0.01024,-0.0034133,-0.10196,-0.040226
8,-0.00706158,10.6767,-0.010088,-0.0036911,-0.10598,-0.040255
8,-0.00801468,10.6757,-0.0098794,-0.0039854,-0.11001,-0.039481
8,-0.00884016,10.6745,-0.0096192,-0.0043024,-0.11395,-0.037897
8,-0.00954042,10.6735,-0.0093193,-0.0046403,-0.11774,-0.036294
8,-0.0101322,10.6726,-0.0089627,-0.0050077,-0.12137,-0.034614
8,-0.0106494,10.6718,-0.0085288,-0.0054451,-0.12483,-0.032678
8,-0.0111044,10.6711,-0.0080024,-0.0059238,-0.1281,-0.030377
8,-0.0114844,10.6705,-0.0073741,-0.0063053,-0.13114,-0.027684
8,-0.0114844,10.6705,-0.0073741,-0.0063053,-0.13391,-0.027684
9,-0.103454,15.2205,0.0016061,0.020169,-0.25076,0.14169
9,-0.102995,15.2217,0.0028311,0.034641,-0.23659,0.2198
9,-0.102557,15.2228,0.0044684,0.052005,-0.21461,0.27729
9,-0.102163,15.2238,0.0061222,0.070667,-0.18688,0.31528
9,-0.101808,15.2247,0.0075013,0.089337,-0.15535,0.3333
9,-0.101469,15.2255,0.0086845,0.10712,-0.12202,0.33178
9,-0.101165,15.2259,0.0097105,0.12309,-0.088843,0.3132
9,-0.10089,15.226,0.010128,0.1361,-0.057523,0.2789
9,-0.101139,15.2271,0.0094612,0.14538,-0.029633,0.23546
9,-0.10183,15.2313,0.0077798,0.15101,-0.006087,0.19343
9,-0.101847,15.2407,0.0054407,0.15372,0.013256,0.42594
9,-0.100339,15.2586,0.0026243,0.16154,0.055849,0.34897
9,-0.0980914,15.2829,-0.00071586,0.16792,0.090746,0.28312
9,-0.0954947,15.3124,-0.0046397,0.17285,0.11906,0.23163
9,-0.0929517,15.3456,-0.008144,0.17619,0.14222,0.19963
9,-0.0904268,15.3812,-0.0094203,0.1782,0.16218,0.18404
9,-0.0879167,15.4175,-0.0081518,0.17962,0.18059,0.17675
9,-0.0862351,15.4519,-0.0060083,0.18081,0.19826,0.16916
9,-0.0864234,15.4822,-0.0050435,0.18098,0.21518,0.15483
9,-0.0886719,15.5075,-0.0069901,0.17835,0.23066,0.12845
9,-0.0925721,15.528,-0.012043,0.17079,0.24351,0.089746
9,-0.0977466,15.5448,-0.018545,0.15595,0.25248,-0.001831
9,-0.103988,15.5587,-0.024529,0.13456,0.2523,-0.089232
9,-0.111442,15.5695,-0.029452,0.10685,0.24338,-0.16776
9,-0.118096,15.5771,-0.033335,0.073662,0.2266,-0.23353
9,-0.120309,15.5819,-0.036185,0.036662,0.20325,-0.28071
9,-0.117468,15.5851,-0.03801,-0.0014896,0.17518,-0.3065
9,-0.112907,15.5876,-0.03817,-0.037467,0.14452,-0.30974
9,-0.111226,15.5891,-0.035749,-0.068934,0.11355,-0.29357
9,-0.115811,15.588,-0.030687,-0.095158,0.084195,-0.2671
9,-0.125934,15.5823,-0.023497,-0.11658,0.057484,-0.23485
9,-0.137429,15.5706,-0.014562,-0.1341,0.033999,-0.19547
9,-0.147149,15.5521,-0.0046237,-0.14802,0.014452,-0.14991
9,-0.1544,15.5261,0.0055923,-0.15773,-0.00053962,-0.1057
9,-0.159622,15.4929,0.013386,-0.16233,-0.01111,-0.076602
9,-0.162797,15.4545,0.01441,-0.16167,-0.01877,-0.075626
9,-0.163936,15.4145,0.008341,-0.1565,-0.026333,-0.10036
9,-0.162575,15.377,4.95E-05,-0.14768,-0.036369,-0.13094
9,-0.157922,15.3444,-0.0042103,-0.13582,-0.049463,-0.14308
9,-0.150045,15.3171,-0.00019261,-0.1211,-0.063771,-0.11983
9,-0.139567,15.2948,0.010831,-0.10311,-0.075754,-0.065643
9,-0.126871,15.2766,0.023886,-0.0814,-0.082318,0.00058137
9,-0.113236,15.2626,0.035594,-0.055172,-0.08226,0.062876
9,-0.100258,15.254,0.045266,-0.023201,-0.075972,0.11354
9,-0.0913245,15.2524,0.053452,0.014639,-0.064618,0.15167
9,-0.0914893,15.2586,0.060027,0.056775,-0.049451,0.17545
9,-0.100786,15.2721,0.06494,0.10038,-0.031906,0.18731
9,-0.112808,15.2923,0.068049,0.14279,-0.013175,0.19312
9,-0.119646,15.3174,0.068951,0.18318,0.0061367,0.19332
9,-0.116196,15.3458,0.067583,0.22184,0.025469,0.18564
9,-0.104273,15.3761,0.064169,0.25888,0.044033,0.16981
9,-0.0896576,15.4078,0.058909,0.29367,0.061014,0.1452
9,-0.0759613,15.4417,0.052867,0.3247,0.075534,0.11554
9,-0.0638672,15.4797,0.04771,0.35016,0.087088,0.088579
9,-0.0527171,15.5222,0.046011,0.36861,0.095946,0.074428
9,-0.0427427,15.5681,0.051028,0.37933,0.10339,0.084964
9,-0.0340568,15.6153,0.062628,0.38195,0.11189,0.11968
9,-0.0264764,15.6626,0.075969,0.37644,0.12385,0.1597
9,-0.020021,15.7107,0.085466,0.36386,0.13982,0.18173
9,-0.0148781,15.7608,0.087873,0.3465,0.158,0.17055
9,-0.011229,15.8126,0.084369,0.32683,0.17505,0.13014
9,-0.00905249,15.8639,0.078398,0.30617,0.18807,0.073902
9,-0.00750203,15.912,0.071977,0.28406,0.19546,0.014715
9,-0.00483739,15.9544,0.065658,0.25921,0.19693,-0.035887
9,0.000696957,15.9897,0.059213,0.23115,0.19334,-0.073156
9,0.0105664,16.0172,0.052868,0.20072,0.18602,-0.098054
9,0.0244698,16.036,0.046751,0.16923,0.17622,-0.11739
9,0.0391304,16.0452,0.04086,0.13723,0.16448,-0.13797
9,0.0512851,16.0452,0.035362,0.1039,0.15068,-0.1582
9,0.0595504,16.0388,0.030676,0.067962,0.13486,-0.17307
9,0.0644663,16.0297,0.026957,0.028978,0.11755,-0.18219
9,0.067138,16.0201,0.02409,-0.011716,0.099335,-0.18608
9,0.0679925,16.0098,0.021785,-0.051185,0.080727,-0.18659
9,0.067449,15.9981,0.019306,-0.086173,0.062068,-0.18624
9,0.0657096,15.9845,0.015602,-0.11481,0.043444,-0.18896
9,0.0629939,15.9695,0.0098078,-0.13719,0.024548,-0.19751
9,0.0594443,15.9537,0.0018355,-0.154,0.0047967,-0.21098
9,0.0552442,15.937,-0.0066419,-0.16542,-0.016302,-0.22352
9,0.0507035,15.9185,-0.013741,-0.17151,-0.038654,-0.22825
9,0.0464733,15.8967,-0.018804,-0.17343,-0.061479,-0.22178
9,0.0426841,15.8705,-0.02153,-0.16988,-0.083657,-0.20761
9,0.0391283,15.8405,-0.023243,-0.16717,-0.10442,-0.18705
9,0.0360683,15.8096,-0.024039,-0.16537,-0.12312,-0.16108
9,0.0337737,15.782,-0.024134,-0.16352,-0.13923,-0.13407
9,0.0319017,15.76,-0.023629,-0.16089,-0.15264,-0.10998
9,0.030182,15.7428,-0.022653,-0.1577,-0.16364,-0.088623
9,0.0281408,15.7281,-0.021287,-0.15453,-0.1725,-0.06674
9,0.0258466,15.7143,-0.019636,-0.15167,-0.17917,-0.043193
9,0.023804,15.7021,-0.017882,-0.14891,-0.18349,-0.021046
9,0.021943,15.6919,-0.015767,-0.13802,-0.1856,-0.0064825
9,0.0214069,15.69,-0.014603,-0.13149,-0.18625,-0.01762
9,0.0206515,15.6858,-0.013438,-0.12212,-0.18801,-0.008205
9,0.0199151,15.6791,-0.012429,-0.11114,-0.18883,0.00026137
9,0.0191815,15.6711,-0.011771,-0.10083,-0.1888,0.0068091
9,0.0184514,15.6627,-0.011308,-0.092893,-0.18812,0.01271
9,0.0176879,15.6541,-0.010888,-0.087254,-0.18685,0.018035
9,0.0168701,15.6447,-0.010155,-0.082585,-0.18505,0.021871
9,0.0159727,15.6337,-0.0090895,-0.078017,-0.18286,0.024353
9,0.0149393,15.6207,-0.0080588,-0.074034,-0.18042,0.025275
9,0.0149393,15.6207,-0.0080588,-0.074034,-0.1779,0.025275
10,0.00809403,11.3536,0.014702,-0.50228,-0.085488,0.27959
10,0.00939415,11.2835,0.014742,-0.50035,-0.057529,0.26818
10,0.010654,11.2162,0.014118,-0.49633,-0.030711,0.24855
10,0.011683,11.1517,0.013002,-0.49047,-0.0058559,0.2224
10,0.0125212,11.0897,0.011138,-0.48189,0.016384,0.18907
10,0.0129513,11.0301,0.0088389,-0.46925,0.035291,0.1524
10,0.0130834,10.9741,0.0069699,-0.45138,0.050531,0.12003
10,0.013219,10.9234,0.0058121,-0.42747,0.062534,0.094402
10,0.0135549,10.8793,0.0051767,-0.3982,0.071975,0.072926
10,0.0140566,10.8424,0.0046248,-0.36565,0.079267,0.052984
10,0.0144716,10.812,0.003997,-0.33203,0.084566,0.033532
10,0.0148017,10.7871,0.0033593,-0.2987,0.087919,0.015282
10,0.0150749,10.7666,0.0026935,-0.26626,0.089447,-0.0015154
10,0.0153008,10.7496,0.0020374,-0.23479,0.089295,-0.01503
10,0.0154746,10.7355,0.0013696,-0.20425,0.087792,-0.025283
10,0.0156315,10.7238,0.00081056,-0.17487,0.085264,-0.036964
10,0.0157745,10.7142,0.00032177,-0.14723,0.081568,-0.051811
10,0.0158927,10.7062,-0.00023396,-0.12215,0.076387,-0.066289
10,0.0159906,10.6996,-0.00093062,-0.10034,0.069758,-0.078486
10,0.0160584,10.6941,-0.0017504,-0.082037,0.061909,-0.087523
10,0.0160881,10.6896,-0.0025668,-0.067038,0.053157,-0.090876
10,0.0161127,10.6861,-0.0033673,-0.054939,0.044069,-0.09001
10,0.0160409,10.6837,-0.0042927,-0.045015,0.035068,-0.089019
10,0.0157578,10.6822,-0.0056111,-0.035983,0.026166,-0.089436
10,0.0152604,10.6812,-0.0067873,-0.026141,0.017223,-0.087626
10,0.0145724,10.6804,-0.0073918,-0.014321,0.0084602,-0.082888
10,0.0137269,10.6797,-0.0075299,-0.00086391,0.00017137,-0.078129
10,0.0127511,10.6791,-0.0077429,0.012651,-0.0076415,-0.075453
10,0.0116937,10.6787,-0.0084653,0.024602,-0.015187,-0.074621
10,0.0105557,10.6783,-0.009313,0.034251,-0.022649,-0.074043
10,0.00933787,10.6779,-0.0098185,0.038978,-0.030053,-0.071743
10,0.00806717,10.6773,-0.010379,0.043313,-0.037227,-0.070475
10,0.00648948,10.6765,-0.010897,0.04713,-0.044275,-0.070876
10,0.0040787,10.6776,-0.011245,0.050597,-0.051363,-0.071341
10,0.00190006,10.6832,-0.011414,0.054137,-0.058497,-0.071604
10,0.000847965,10.6952,-0.011418,0.058168,-0.065657,-0.070561
10,0.00071466,10.7124,-0.011282,0.062864,-0.072713,-0.068379
10,0.000406952,10.7315,-0.011023,0.068337,-0.079551,-0.067364
10,-0.000940042,10.7488,-0.010685,0.074787,-0.086288,-0.06611
10,-0.00256769,10.7626,-0.010116,0.074957,-0.092899,-0.06208
10,-0.00354892,10.7675,-0.010007,0.079099,-0.099107,-0.037312
10,-0.00464578,10.7727,-0.0098573,0.083878,-0.10284,-0.038055
10,-0.00575359,10.7779,-0.0095091,0.089225,-0.10664,-0.037222
10,-0.00673156,10.7834,-0.0085967,0.094153,-0.11037,-0.032795
10,-0.00756805,10.7895,-0.0077174,0.096699,-0.11365,-0.02848
10,-0.00826426,10.7967,-0.0075171,0.095044,-0.11649,-0.026937
10,-0.00883614,10.8054,-0.0079928,0.089068,-0.11919,-0.027429
10,-0.00929591,10.8158,-0.0084025,0.080611,-0.12193,-0.027798
10,-0.00967601,10.8282,-0.0079418,0.072208,-0.12471,-0.025772
10,-0.00967601,10.8282,-0.0079418,0.072208,-0.12729,-0.025772
11,-0.085873,12.1631,0.004619,0.014588,0.22518,-0.033642
11,-0.08532,12.1648,0.0049047,0.01548,0.22181,-0.032228
11,-0.0848116,12.1664,0.0050395,0.015899,0.21859,-0.033757
11,-0.0843638,12.1678,0.0050636,0.016,0.21522,-0.037015
11,-0.0839486,12.1691,0.0050225,0.015879,0.21151,-0.041284
11,-0.0835645,12.1703,0.0049385,0.015612,0.20739,-0.046069
11,-0.0832247,12.1714,0.004827,0.015258,0.20278,-0.051043
11,-0.0829075,12.1724,0.0046914,0.014845,0.19767,-0.055317
11,-0.0826117,12.1733,0.0045415,0.014397,0.19214,-0.057839
11,-0.0823492,12.1742,0.0043972,0.013945,0.18636,-0.098071
11,-0.0813924,12.1772,0.0041853,0.013225,0.17655,-0.10197
11,-0.0805877,12.1797,0.0039028,0.012791,0.16635,-0.10391
11,-0.0799219,12.1818,0.0033936,0.013176,0.15596,-0.10538
11,-0.0793843,12.1836,0.0027679,0.015108,0.14543,-0.10587
11,-0.0789396,12.185,0.001991,0.019173,0.13484,-0.10642
11,-0.0785717,12.1861,0.00070272,0.025447,0.1242,-0.10942
11,-0.0782673,12.1871,-0.0012756,0.033666,0.11325,-0.11531
11,-0.0780287,12.1879,-0.0038121,0.043516,0.10172,-0.12356
11,-0.0778445,12.1885,-0.0065787,0.054632,0.089368,-0.13272
11,-0.0776789,12.189,-0.0092777,0.066373,0.076096,-0.1415
11,-0.0775024,12.1895,-0.01244,0.076579,0.061946,-0.15425
11,-0.0775143,12.1904,-0.015872,0.085688,0.046521,-0.16628
11,-0.0780244,12.1928,-0.01952,0.093269,0.029892,-0.17767
11,-0.078828,12.1981,-0.023322,0.099409,0.012125,-0.18846
11,-0.0799667,12.2075,-0.027243,0.10442,-0.0067205,-0.19865
11,-0.082159,12.2212,-0.031271,0.10852,-0.026585,-0.20773
11,-0.0857759,12.2388,-0.035701,0.1118,-0.047359,-0.21798
11,-0.0905317,12.2594,-0.039847,0.1145,-0.069157,-0.22817
11,-0.0957691,12.2826,-0.041914,0.11693,-0.091974,-0.22975
11,-0.100905,12.3069,-0.041065,0.11924,-0.11495,-0.21855
11,-0.106272,12.3304,-0.03817,0.12129,-0.1368,-0.19745
11,-0.112331,12.3511,-0.034947,0.12248,-0.15655,-0.17468
11,-0.118963,12.3684,-0.032135,0.12172,-0.17402,-0.15587
11,-0.126028,12.3824,-0.029283,0.11763,-0.1896,-0.13835
11,-0.133426,12.3938,-0.02585,0.10919,-0.20344,-0.1154
11,-0.141113,12.4032,-0.021306,0.096284,-0.21498,-0.082531
11,-0.14967,12.4107,-0.015277,0.079456,-0.22323,-0.040092
11,-0.157722,12.4169,-0.0080641,0.059335,-0.22724,0.0084664
11,-0.161673,12.4224,-0.00033378,0.036661,-0.22639,0.058688
11,-0.159808,12.4275,0.0073249,0.012817,-0.22053,0.109
11,-0.153843,12.4321,0.01524,-0.010252,-0.20963,0.16072
11,-0.147408,12.4354,0.023861,-0.0311,-0.19355,0.21236
11,-0.142294,12.4362,0.033158,-0.049248,-0.17232,0.26307
11,-0.137393,12.4333,0.043139,-0.064815,-0.14601,0.31567
11,-0.131667,12.4259,0.053726,-0.077969,-0.11444,0.3725
11,-0.124771,12.4138,0.064821,-0.088733,-0.077194,0.43125
11,-0.116329,12.3977,0.076961,-0.097361,-0.034068,0.49204
11,-0.10666,12.3781,0.088747,-0.10445,0.015136,0.54974
11,-0.0964366,12.3559,0.096563,-0.11068,0.07011,0.58613
11,-0.086255,12.3325,0.098666,-0.11645,0.12872,0.59243
12,0.0278722,12.2874,-0.038647,0.21437,0.14243,-0.52394
12,0.0243477,12.3282,-0.039619,0.21969,0.09004,-0.50431
12,0.0201817,12.3695,-0.038784,0.22425,0.03961,-0.47464
12,0.0155243,12.4091,-0.036626,0.22779,-0.0078543,-0.43487
12,0.0109607,12.4461,-0.033228,0.22945,-0.051341,-0.38379
12,0.00669834,12.4802,-0.028825,0.22785,-0.08972,-0.32388
12,0.00247463,12.5105,-0.023997,0.22159,-0.12211,-0.26464
12,-0.00200666,12.5363,-0.019286,0.20941,-0.14857,-0.21113
12,-0.00650363,12.5574,-0.015034,0.18997,-0.16969,-0.15973
12,-0.0105924,12.5747,-0.01141,0.16244,-0.18566,-0.10893
12,-0.0134221,12.5888,-0.0088273,0.12772,-0.19655,-0.063983
12,-0.0143679,12.6005,-0.0068485,0.088604,-0.20295,-0.024086
12,-0.0135577,12.6103,-0.0043165,0.048601,-0.20536,0.015098
12,-0.011466,12.6185,-0.0013729,0.010132,-0.20385,0.052886
12,-0.00824825,12.6249,0.0014177,-0.025971,-0.19856,0.088349
12,-0.00427015,12.628,0.0038644,-0.059299,-0.18972,0.12244
12,-0.000149969,12.626,0.0062307,-0.089009,-0.17748,0.15668
12,0.00362707,12.6173,0.0087872,-0.11427,-0.16181,0.19126
12,0.00675171,12.6008,0.011297,-0.13498,-0.14269,0.22278
12,0.0090734,12.5756,0.013564,-0.15184,-0.12041,0.24517
12,0.0102175,12.5429,0.01517,-0.16571,-0.095893,0.25425
12,0.0106507,12.5054,0.0158,-0.17718,-0.070467,0.25201
12,0.0115487,12.4667,0.015526,-0.18673,-0.045266,0.24191
12,0.0127786,12.4293,0.014588,-0.19474,-0.021075,0.22468
12,0.013796,12.3941,0.013075,-0.20117,0.0013928,0.19917
12,0.0144271,12.3616,0.011172,-0.20539,0.021309,0.16817
12,0.0149361,12.3325,0.0091766,-0.20641,0.038126,0.13761
12,0.0155677,12.3078,0.0072822,-0.20337,0.051887,0.1111
12,0.0160902,12.2875,0.0055835,-0.19574,0.062997,0.087083
12,0.0165356,12.271,0.0041584,-0.18352,0.071705,0.064338
12,0.0169173,12.2574,0.0032164,-0.16744,0.078139,0.044272
12,0.017233,12.2461,0.0029726,-0.14919,0.082566,0.028729
12,0.0174942,12.2368,0.0024906,-0.13023,0.085439,0.013281
12,0.0177103,12.2291,0.0018361,-0.11181,0.086767,-0.0013974
12,0.0179022,12.2226,0.0012725,-0.094393,0.086627,-0.014888
12,0.0180741,12.2172,0.00088547,-0.078193,0.085139,-0.027972
12,0.0182032,12.2132,0.00055055,-0.063654,0.082341,-0.041364
12,0.0181915,12.2106,0.00014298,-0.051203,0.078205,-0.055074
12,0.0179186,12.2093,-0.00022436,-0.040887,0.072698,-0.067641
12,0.0173902,12.2086,-0.00058353,-0.032362,0.065933,-0.075881
12,0.0166502,12.208,-0.00077435,-0.02556,0.058345,-0.079119
12,0.016596,12.207,-0.00098128,-0.020975,0.050433,-0.055058
12,0.0165298,12.2062,-0.0011809,-0.016962,0.044928,-0.057058
12,0.0164508,12.2057,-0.0013775,-0.013409,0.039222,-0.055958
12,0.016341,12.2054,-0.0015835,-0.010189,0.033626,-0.05159
12,0.0161981,12.2052,-0.0018037,-0.0072871,0.028467,-0.045871
12,0.0160372,12.2052,-0.0020247,-0.004925,0.02388,-0.04029
12,0.0158536,12.2054,-0.0021715,-0.0033432,0.019851,-0.036147
12,0.0156415,12.2057,-0.002125,-0.0025118,0.016236,-0.032035
12,0.0153686,12.2063,-0.0018378,-0.0020974,0.013033,-0.026488
13,-0.084664,11.8351,0.0063447,-0.35717,-0.21937,0.10913
13,-0.0831905,11.8086,0.006699,-0.38398,-0.20846,0.13055
13,-0.0823373,11.7776,0.0070771,-0.40413,-0.1954,0.14962
13,-0.0818611,11.7419,0.0074401,-0.41844,-0.18044,0.16359
13,-0.0813407,11.7031,0.0076246,-0.42861,-0.16408,0.16798
13,-0.0808031,11.6631,0.0075725,-0.43603,-0.14728,0.16377
13,-0.0802655,11.6233,0.0073461,-0.44093,-0.1309,0.15407
13,-0.0797544,11.5845,0.0070984,-0.44247,-0.1155,0.14181
13,-0.0792567,11.5473,0.0068555,-0.43986,-0.10132,0.12833
13,-0.0787774,11.5117,0.0066203,-0.43277,-0.088484,0.1144
13,-0.0783193,11.4779,0.0063683,-0.42114,-0.077044,0.26761
13,-0.0772951,11.4127,0.0056706,-0.41202,-0.050283,0.2333
13,-0.0761715,11.3501,0.0053487,-0.39437,-0.026953,0.20178
13,-0.0749918,11.2911,0.0052629,-0.36827,-0.0067752,0.17373
13,-0.0739896,11.235,0.0050696,-0.33524,0.010597,0.1473
13,-0.0733053,11.181,0.0047837,-0.29722,0.025328,0.12368
13,-0.0729103,11.1296,0.0043626,-0.25567,0.037695,0.10424
13,-0.0725967,11.0829,0.0036848,-0.21109,0.048119,0.090032
13,-0.0723241,11.0433,0.0028169,-0.16335,0.057123,0.080252
13,-0.0720854,11.0128,0.0017295,-0.11238,0.065148,0.068204
13,-0.0719274,10.9928,2.83E-06,-0.058513,0.071968,0.051911
13,-0.0718494,10.9845,-0.0028867,0.014271,0.077159,0.014425
13,-0.07164,10.9888,-0.0065275,0.088434,0.078602,-0.027485
13,-0.0713352,11.0054,-0.010474,0.16309,0.075853,-0.0693
13,-0.0712015,11.0326,-0.014239,0.23772,0.068923,-0.10494
13,-0.0712357,11.0686,-0.017801,0.31128,0.05843,-0.13366
13,-0.0715404,11.1119,-0.021412,0.38174,0.045064,-0.15761
13,-0.0723847,11.1624,-0.025216,0.4466,0.029302,-0.17859
13,-0.0736228,11.2206,-0.029186,0.50385,0.011443,-0.19667
13,-0.0753184,11.2869,-0.033285,0.55219,-0.008224,-0.21233
13,-0.0783136,11.3609,-0.037552,0.59059,-0.029457,-0.22683
13,-0.0830685,11.4412,-0.041938,0.61839,-0.05214,-0.24113
13,-0.0892265,11.527,-0.046763,0.63556,-0.076253,-0.25693
13,-0.0959397,11.6173,-0.05115,0.64306,-0.10195,-0.27007
13,-0.102467,11.7105,-0.052924,0.6427,-0.12895,-0.27054
13,-0.108907,11.8036,-0.051015,0.63616,-0.15601,-0.25358
13,-0.115735,11.8931,-0.046152,0.62415,-0.18136,-0.22428
13,-0.123029,11.9761,-0.040378,0.6062,-0.20379,-0.19374
13,-0.130695,12.051,-0.035365,0.58122,-0.22317,-0.16891
13,-0.138656,12.1172,-0.030526,0.5488,-0.24006,-0.14387
13,-0.147032,12.174,-0.024359,0.50953,-0.25444,-0.11059
13,-0.155725,12.2213,-0.016565,0.46444,-0.2655,-0.066987
13,-0.165166,12.2599,-0.0074778,0.41452,-0.2722,-0.01319
13,-0.173636,12.2915,0.0020795,0.36058,-0.27352,0.045953
13,-0.177049,12.318,0.011381,0.30373,-0.26893,0.10479
13,-0.173265,12.3409,0.020675,0.24622,-0.25845,0.16269
13,-0.163844,12.3602,0.030588,0.19092,-0.24218,0.22273
13,-0.153141,12.3747,0.041191,0.14023,-0.21991,0.28604
13,-0.144352,12.383,0.052332,0.095288,-0.1913,0.35125
13,-0.136371,12.3845,0.063911,0.056046,-0.15618,0.41661
14,0.0323593,12.5225,-0.034422,0.40468,-0.077393,-0.41939
14,0.0277702,12.5792,-0.037821,0.40673,-0.11933,-0.38396
14,0.0234869,12.6388,-0.039106,0.40819,-0.15773,-0.33841
14,0.0194827,12.6992,-0.038406,0.41141,-0.19157,-0.28414
14,0.0154857,12.7579,-0.03628,0.41651,-0.21998,-0.22381
14,0.0112446,12.8132,-0.03287,0.422,-0.24236,-0.15741
14,0.0068016,12.8639,-0.028258,0.42587,-0.2581,-0.085274
14,0.00295491,12.9091,-0.023279,0.42612,-0.26663,-0.010037
14,-0.00060904,12.9481,-0.018804,0.42127,-0.26764,0.059096
14,-0.00507101,12.9805,-0.014924,0.41075,-0.26173,0.11207
14,-0.00981523,13.0074,-0.011425,0.39493,-0.25052,0.14498
14,-0.0131609,13.0323,-0.0081682,0.37488,-0.23602,0.15984
14,-0.014336,13.059,-0.0053358,0.35219,-0.22004,0.16772
14,-0.013584,13.0898,-0.0028808,0.32896,-0.20327,0.18198
14,-0.0114351,13.1247,-0.00051423,0.30755,-0.18507,0.20157
14,-0.00806477,13.1624,0.0020293,0.28982,-0.16491,0.21796
14,-0.0037235,13.2002,0.0047192,0.27691,-0.14311,0.22757
14,0.000683953,13.2356,0.0070366,0.26919,-0.12036,0.22833
14,0.00434327,13.2664,0.0092761,0.26626,-0.097524,0.22405
14,0.00719942,13.2918,0.012004,0.26715,-0.075119,0.21817
14,0.00950959,13.3124,0.014774,0.26997,-0.053302,0.20844
14,0.0114339,13.329,0.016664,0.27202,-0.032458,0.19309
14,0.0128152,13.3432,0.017327,0.27095,-0.01315,0.17373
14,0.013721,13.3571,0.017012,0.2658,0.0042228,0.1525
14,0.0144572,13.373,0.015949,0.25705,0.019472,0.1313
14,0.0153032,13.3928,0.014149,0.24586,0.032602,0.11009
14,0.0162399,13.4177,0.011718,0.23347,0.043611,0.086252
14,0.017028,13.4475,0.009128,0.2212,0.052236,0.061
14,0.0179432,13.4806,0.0068077,0.21025,0.058336,0.036984
14,0.0189373,13.5148,0.0048026,0.20116,0.062035,0.014355
14,0.0197333,13.5474,0.0035538,0.19314,0.06347,-0.0021726
14,0.0201681,13.5764,0.0024828,0.18683,0.063253,-0.016239
14,0.0203172,13.6009,0.0016665,0.1815,0.061629,-0.0276
14,0.0204405,13.6214,0.0010768,0.17616,0.058869,-0.038023
14,0.0204636,13.6389,0.00054903,0.16966,0.055067,-0.047903
14,0.0202326,13.6541,-6.06E-05,0.16109,0.050276,-0.055768
14,0.0197124,13.6672,-0.00073781,0.14994,0.0447,-0.05978
14,0.0189399,13.678,-0.0013808,0.13631,0.038722,-0.05977
14,0.0179586,13.6869,-0.0021372,0.12102,0.032745,-0.058604
14,0.0168046,13.6942,-0.0026342,0.10396,0.026884,-0.054917
14,0.0166171,13.6987,-0.0031918,0.092267,0.021393,-0.037246
14,0.0163995,13.7026,-0.0036107,0.08127,0.017668,-0.033376
14,0.0161481,13.7062,-0.0039108,0.071633,0.01433,-0.029204
14,0.0158746,13.7094,-0.0042323,0.063322,0.01141,-0.025833
14,0.0155553,13.7123,-0.0045298,0.055882,0.0088267,-0.024584
14,0.0151821,13.715,-0.0046884,0.048983,0.0063683,-0.025826
14,0.0147643,13.7176,-0.0046489,0.042704,0.0037857,-0.025678
14,0.0142665,13.7201,-0.0043926,0.037258,0.0012179,-0.022466
14,0.0136688,13.7227,-0.0038998,0.032567,-0.0010288,-0.016782
14,0.0136688,13.7227,-0.0038998,0.032567,-0.0027069,-0.016782
15,-0.0677055,10.2492,0.0011276,0.075951,0.19735,-0.032022
15,-0.0670733,10.2585,0.0012132,0.074586,0.19414,-0.019116
15,-0.0666154,10.2671,0.0012329,0.078418,0.19223,-0.01591
15,-0.0665639,10.2725,0.00121,0.085343,0.19064,-0.018358
15,-0.0667967,10.2755,0.0011506,0.093451,0.18881,-0.0244
15,-0.0669666,10.279,0.0010685,0.10156,0.18637,-0.028836
15,-0.0668273,10.2848,0.00098109,0.10921,0.18348,-0.032733
15,-0.0667279,10.2933,0.00086858,0.11622,0.18021,-0.03803
15,-0.066658,10.3033,0.00083602,0.12225,0.17641,-0.04291
15,-0.0666099,10.3141,0.00049951,0.12698,0.17211,-0.048132
15,-0.0665779,10.3252,-0.00035422,0.13102,0.1673,-0.077526
15,-0.0663709,10.3313,-0.0016981,0.13825,0.15955,-0.091277
15,-0.066226,10.3433,-0.0027115,0.14943,0.15042,-0.10001
15,-0.0661325,10.3602,-0.0034916,0.1671,0.14042,-0.1052
15,-0.0660946,10.3801,-0.0046836,0.19021,0.1299,-0.1109
15,-0.0661027,10.4016,-0.0067669,0.21578,0.11881,-0.12024
15,-0.0661357,10.424,-0.0098148,0.24141,0.10679,-0.13395
15,-0.0662289,10.4468,-0.012881,0.26611,0.093391,-0.14716
15,-0.0662006,10.4693,-0.015537,0.2894,0.078675,-0.15782
15,-0.0667564,10.4905,-0.018229,0.31039,0.062892,-0.16728
15,-0.0684139,10.5113,-0.021439,0.32787,0.046165,-0.17971
15,-0.0704695,10.535,-0.025317,0.34396,0.028193,-0.20393
15,-0.0720385,10.566,-0.029013,0.35445,0.0078005,-0.22279
15,-0.073547,10.6067,-0.031793,0.36212,-0.014479,-0.23186
15,-0.0761638,10.656,-0.033212,0.3698,-0.037665,-0.22932
15,-0.0805003,10.7106,-0.033181,0.37958,-0.060597,-0.22155
15,-0.0864569,10.7677,-0.032991,0.39214,-0.082752,-0.21434
15,-0.0924902,10.8255,-0.033261,0.40719,-0.10419,-0.20739
15,-0.0977315,10.8821,-0.033274,0.4245,-0.12492,-0.19817
15,-0.103068,10.9349,-0.032147,0.4437,-0.14474,-0.18343
15,-0.109457,10.9809,-0.0297,0.46314,-0.16308,-0.1633
15,-0.117006,11.0192,-0.026676,0.47956,-0.17941,-0.14154
15,-0.124251,11.0522,-0.023898,0.48942,-0.19357,-0.12073
15,-0.129719,11.0844,-0.020889,0.49106,-0.20564,-0.097636
15,-0.132518,11.1197,-0.016524,0.48539,-0.21541,-0.069383
15,-0.132464,11.1607,-0.010327,0.47465,-0.22234,-0.035808
15,-0.132117,11.2082,-0.0025148,0.46074,-0.22592,0.0034731
15,-0.132751,11.2612,0.0054745,0.44517,-0.22558,0.044394
15,-0.132749,11.3183,0.012748,0.42993,-0.22114,0.084355
15,-0.13105,11.3779,0.020181,0.41771,-0.2127,0.12721
15,-0.127814,11.4376,0.028857,0.4113,-0.19998,0.17973
15,-0.123822,11.4941,0.039002,0.41187,-0.18201,0.24645
15,-0.119834,11.5448,0.049119,0.41727,-0.15736,0.32008
15,-0.115325,11.5888,0.057686,0.42346,-0.12536,0.38963
15,-0.109212,11.6267,0.063773,0.42659,-0.086392,0.44813
15,-0.101154,11.6598,0.06717,0.42387,-0.041579,0.495
15,-0.0914865,11.6891,0.070408,0.41461,0.0079206,0.54101
15,-0.0815413,11.7158,0.074758,0.39978,0.062021,0.59225
15,-0.0722346,11.742,0.078594,0.3807,0.12125,0.63955
15,-0.0627059,11.7703,0.080813,0.35908,0.1852,0.67222
16,-0.108305,12.2801,-0.008986,-0.45173,-0.12456,0.23566
16,-0.105234,12.235,-0.0017282,-0.45366,-0.101,0.2668
16,-0.101891,12.1866,0.0046116,-0.45374,-0.074316,0.28009
16,-0.0985063,12.1358,0.0097774,-0.45111,-0.046307,0.27583
16,-0.0950877,12.0852,0.013636,-0.44518,-0.018724,0.2597
16,-0.09172,12.0368,0.016302,-0.43672,0.007246,0.23755
16,-0.0886839,11.9909,0.0181,-0.42726,0.031001,0.20853
16,-0.0861459,11.9466,0.018751,-0.41744,0.051854,0.16945
16,-0.0840068,11.9034,0.018526,-0.40632,0.068799,0.12824
16,-0.0821976,11.8611,0.017774,-0.39221,0.081623,0.092233
16,-0.0806615,11.8192,0.016507,-0.37356,0.090847,0.060213
16,-0.0793249,11.7778,0.014959,-0.34884,0.096868,0.030033
16,-0.0784166,11.7377,0.013362,-0.31716,0.099871,0.0014369
16,-0.0776389,11.7004,0.01189,-0.27936,0.10001,-0.022545
16,-0.0767454,11.6666,0.010297,-0.23772,0.09776,-0.041618
16,-0.0760195,11.6356,0.008367,-0.19448,0.093599,-0.05773
16,-0.0753794,11.606,0.0061518,-0.15064,0.087826,-0.071658
16,-0.0752447,11.5782,0.003569,-0.10624,0.08066,-0.08443
16,-0.0753571,11.5549,0.00044523,-0.061348,0.072217,-0.09724
16,-0.0752921,11.5392,-0.003113,-0.015905,0.062493,-0.10995
16,-0.075291,11.533,-0.0067937,0.030414,0.051498,-0.12128
16,-0.0753164,11.5373,-0.010345,0.077433,0.03937,-0.1303
16,-0.0751663,11.5523,-0.013665,0.12385,0.02634,-0.13671
16,-0.0747262,11.5771,-0.016951,0.16751,0.012669,-0.14175
16,-0.0744938,11.6097,-0.019861,0.2071,-0.0015067,-0.1456
16,-0.0749859,11.6478,-0.022142,0.24316,-0.016067,-0.14749
16,-0.0763802,11.6896,-0.024399,0.27693,-0.030816,-0.14811
16,-0.0790078,11.7341,-0.026653,0.30838,-0.045627,-0.14706
16,-0.0831163,11.7807,-0.028834,0.33569,-0.060333,-0.14696
16,-0.0884236,11.8293,-0.030468,0.3568,-0.075029,-0.14723
16,-0.0942489,11.8801,-0.031187,0.37074,-0.089751,-0.14352
16,-0.100016,11.9327,-0.031309,0.37743,-0.1041,-0.13478
16,-0.105747,11.9854,-0.03104,0.3772,-0.11758,-0.12139
16,-0.111541,12.0354,-0.030496,0.37067,-0.12972,-0.1046
16,-0.116467,12.0808,-0.029388,0.35873,-0.14018,-0.084543
16,-0.120304,12.1219,-0.027464,0.34226,-0.14863,-0.061349
16,-0.124177,12.1599,-0.024556,0.32192,-0.15477,-0.034111
16,-0.128551,12.195,-0.020229,0.29836,-0.15818,0.00018828
16,-0.133026,12.2263,-0.014274,0.27225,-0.15816,0.042983
16,-0.136228,12.2528,-0.0070041,0.24391,-0.15386,0.09281
16,-0.137665,12.2745,0.00087874,0.2133,-0.14458,0.14756
16,-0.137933,12.2922,0.0087754,0.18081,-0.12983,0.20176
16,-0.137247,12.3067,0.016828,0.14771,-0.10965,0.24859
16,-0.135718,12.3185,0.024991,0.11563,-0.084792,0.28525
16,-0.133269,12.3272,0.032303,0.085645,-0.056267,0.31126
16,-0.129914,12.3324,0.038819,0.057881,-0.025141,0.33114
16,-0.125493,12.3335,0.045657,0.032306,0.0079731,0.35187
16,-0.119466,12.3309,0.053243,0.0095432,0.04316,0.37557
16,-0.111664,12.3252,0.061038,-0.0092222,0.080717,0.40145
16,-0.102432,12.3171,0.067645,-0.022759,0.12086,0.42356
17,-0.018758,3.052,-0.0014023,-0.013359,0.0018364,-0.0019193
17,-0.018848,3.0513,-0.0011601,-0.011038,0.0016445,-0.0015581
17,-0.018896,3.0507,-0.00095973,-0.0091185,0.0014887,-0.0013921
17,-0.018949,3.0502,-0.00080712,-0.0075303,0.0013495,-0.0012618
17,-0.019006,3.0498,-0.00068087,-0.0062164,0.0012233,-0.0012809
17,-0.01904,3.0495,-0.00056326,-0.0051295,0.0010952,-0.0011752
17,-0.019081,3.0492,-0.00047913,-0.0042172,0.00097767,-0.0012107
17,-0.019115,3.049,-0.00040296,-0.0034361,0.0008566,-0.0012373
17,-0.01913,3.0488,-0.00033335,-0.0027307,0.00073288,-0.0011321
17,-0.019143,3.0487,-0.0003021,-0.0019827,0.00061967,-0.0014112
17,-0.019153,3.0486,-0.00028282,-0.0012059,0.00047855,-0.0016362
17,-0.019162,3.0485,2.94E-06,-0.00087911,0.00031494,0.0012607
17,-0.019169,3.0484,0.00064079,-0.0022277,0.00044101,0.0089167
17,-0.019188,3.0483,0.0011816,-0.0066404,0.0013327,0.014918
17,-0.019203,3.0483,0.0012473,-0.01526,0.0028245,0.011928
17,-0.019203,3.0482,0.0010582,-0.028662,0.0040173,0.0043592
17,-0.019216,3.0482,0.00094124,-0.046481,0.0044532,0.00026039
17,-0.019227,3.0483,0.00087737,-0.067942,0.0044792,-0.0016056
17,-0.019236,3.0484,0.00085745,-0.092296,0.0043187,-0.0033312
17,-0.01927,3.0489,0.00087386,-0.11901,0.0039856,-0.0046934
17,-0.019324,3.0496,0.00092035,-0.14769,0.0035162,-0.0062875
17,-0.018842,3.0495,0.00099829,-0.17802,0.0028875,-0.0079717
17,-0.017615,3.0462,0.0010957,-0.20967,0.0020903,-0.009487
17,-0.016586,3.0369,0.0012223,-0.24232,0.0011416,-0.010839
17,-0.016511,3.0193,0.00136,-0.2758,5.77E-05,-0.012212
17,-0.016923,2.9922,0.0016055,-0.31034,-0.0011635,-0.011042
17,-0.017199,2.9563,0.0019731,-0.34656,-0.0022677,-0.0072483
17,-0.01736,2.9131,0.0023496,-0.38528,-0.0029925,-0.0038068
17,-0.017415,2.8642,0.0027269,-0.42731,-0.0033732,-0.00082412
17,-0.017395,2.8107,0.0031114,-0.47346,-0.0034556,0.0020076
17,-0.017312,2.7532,0.0034163,-0.5241,-0.0032548,0.0017843
17,-0.017165,2.6924,0.0031158,-0.57819,-0.0030764,-0.0098114
17,-0.016977,2.6291,0.002117,-0.63261,-0.0040575,-0.036078
17,-0.016743,2.5637,0.0013564,-0.68344,-0.0076653,-0.059082
17,-0.016483,2.4967,0.0015762,-0.72729,-0.013574,-0.05754
17,-0.015992,2.4275,0.0022977,-0.76232,-0.019328,-0.041991
17,-0.01527,2.3551,0.0028945,-0.78901,-0.023527,-0.034205
17,-0.014528,2.2777,0.0033949,-0.80886,-0.026947,-0.032381
17,-0.013782,2.1938,0.0038022,-0.82336,-0.030185,-0.030844
17,-0.013047,2.1019,0.0041392,-0.83371,-0.03327,-0.029875
17,-0.012491,2.0014,0.0044245,-0.84092,-0.036257,-0.028653
17,-0.012611,1.8931,0.0046606,-0.84582,-0.039122,-0.026853
17,-0.013381,1.781,0.004869,-0.84909,-0.041808,-0.024871
17,-0.013873,1.67,0.0050415,-0.85125,-0.044295,-0.0236
17,-0.013359,1.5647,0.0051973,-0.85247,-0.046655,-0.022134
17,-0.012328,1.4675,0.0051288,-0.85218,-0.048868,-0.031146
17,-0.01141,1.3782,0.0048352,-0.84902,-0.051983,-0.062458
17,-0.010571,1.2954,0.0045199,-0.84114,-0.058229,-0.10983
17,-0.009811,1.2175,0.0041999,-0.82673,-0.069212,-0.15467
17,-0.0091166,1.1432,0.0038956,-0.80421,-0.084678,-0.17906
18,-0.020921,3.2591,-0.0017763,0.33625,0.014162,-0.026333
18,-0.020795,3.3192,-0.0016669,0.34395,0.011528,-0.018086
18,-0.020717,3.3778,-0.0013395,0.34836,0.0097198,-0.0074864
18,-0.020693,3.4329,-0.0010094,0.34784,0.0089712,0.0019581
18,-0.020738,3.4827,-0.00057841,0.34048,0.009167,0.011806
18,-0.020999,3.526,-0.0002021,0.32428,0.010348,0.019012
18,-0.021426,3.5624,-0.00013429,0.29787,0.012249,0.021466
18,-0.021792,3.5922,-0.00030194,0.26151,0.014395,0.019933
18,-0.022095,3.6167,-0.00036166,0.21676,0.016389,0.018737
18,-0.022332,3.6371,5.62E-05,0.16548,0.018262,0.022186
18,-0.022542,3.6543,0.0006914,0.10882,0.020481,0.025717
18,-0.022505,3.668,0.0010853,0.047728,0.023053,0.025002
18,-0.022237,3.6772,0.0010492,-0.016638,0.025553,0.018914
18,-0.02195,3.6806,0.00083506,-0.082746,0.027444,0.007587
18,-0.02166,3.6768,0.00076322,-0.14843,0.028203,-0.0046531
18,-0.021406,3.6647,0.00096701,-0.21158,0.027738,-0.013106
18,-0.021341,3.6437,0.0013857,-0.27093,0.026427,-0.014644
18,-0.021419,3.614,0.0017847,-0.32637,0.024963,-0.011941
18,-0.021418,3.576,0.0021674,-0.3786,0.023769,-0.009712
18,-0.020785,3.5304,0.002517,-0.42849,0.022797,-0.0078881
18,-0.019538,3.4767,0.0028522,-0.47647,0.022008,-0.0062317
18,-0.018625,3.4147,0.0030637,-0.52249,0.021385,-0.0067994
18,-0.018619,3.3445,0.0031531,-0.56609,0.020705,-0.0089849
18,-0.019023,3.2674,0.0032337,-0.6066,0.019807,-0.015683
18,-0.019212,3.1859,0.0033266,-0.6434,0.018239,-0.028426
18,-0.019065,3.1029,0.0034496,-0.67597,0.015396,-0.038305
18,-0.018655,3.0205,0.0036566,-0.70399,0.011565,-0.042046
18,-0.018223,2.9394,0.0039332,-0.72754,0.0073609,-0.043098
18,-0.01776,2.8595,0.0041752,-0.74698,0.0030511,-0.044472
18,-0.017299,2.7801,0.0041055,-0.76256,-0.0013961,-0.045998
18,-0.016838,2.7013,0.002988,-0.76262,-0.0059959,-0.070787
18,-0.016377,2.623,0.0020854,-0.75792,-0.013075,-0.092667
18,-0.015931,2.545,0.0021467,-0.74719,-0.022341,-0.089052
18,-0.015483,2.4674,0.0027173,-0.72991,-0.031247,-0.067439
18,-0.015006,2.39,0.0031321,-0.70727,-0.03799,-0.047536
18,-0.014507,2.3128,0.0033476,-0.68118,-0.042744,-0.034841
18,-0.014028,2.2358,0.0034066,-0.65323,-0.046228,-0.030536
18,-0.013553,2.1589,0.0034264,-0.62413,-0.049282,-0.028922
18,-0.013068,2.0821,0.0033961,-0.594,-0.052174,-0.028452
18,-0.012574,2.0053,0.0031653,-0.55434,-0.055019,-0.028922
18,-0.013562,1.9515,0.0030893,-0.54205,-0.057911,-0.029321
18,-0.014454,1.8988,0.0030053,-0.52863,-0.060844,-0.032786
18,-0.014326,1.8502,0.0029194,-0.51387,-0.064122,-0.036702
18,-0.013588,1.8076,0.0028216,-0.49745,-0.067792,-0.03561
18,-0.012947,1.7713,0.0026923,-0.47902,-0.071353,-0.025903
18,-0.01237,1.7405,0.0025279,-0.45809,-0.073944,-0.017146
18,-0.011841,1.714,0.0023541,-0.43407,-0.075658,-0.016448
18,-0.01137,1.6912,0.0021543,-0.40619,-0.077303,-0.02048
18,-0.010968,1.6715,0.0019091,-0.3733,-0.079351,-0.024611
18,-0.010968,1.6715,0.0019091,-0.3733,-0.081812,-0.024611
19,-0.0950209,13.3923,-1.60E-05,0.27732,-0.17719,0.47732
19,-0.0937048,13.4092,-0.00018436,0.23771,-0.12946,0.42638
19,-0.0935768,13.4228,-0.00082377,0.20847,-0.08682,0.36719
19,-0.0944186,13.4327,-0.00095789,0.19125,-0.050101,0.30448
19,-0.095681,13.4379,-0.00014092,0.18799,-0.019653,0.2465
19,-0.0967779,13.4382,0.00026512,0.19953,0.0049964,0.18863
19,-0.097567,13.434,-0.00090602,0.22323,0.02386,0.12741
19,-0.0987199,13.4271,-0.0028817,0.25463,0.036601,0.072008
19,-0.100503,13.4206,-0.005431,0.29009,0.043801,0.02598
19,-0.102004,13.4174,-0.0091785,0.32696,0.046399,-0.01414
19,-0.102799,13.4208,-0.013463,0.36368,0.044985,-0.050703
19,-0.103588,13.4356,-0.01683,0.39997,0.039915,-0.083123
19,-0.104359,13.4649,-0.019102,0.43598,0.031603,-0.10906
19,-0.104286,13.5096,-0.020653,0.47243,0.020697,-0.1285
19,-0.103186,13.5707,-0.022239,0.51031,0.0078473,-0.14436
19,-0.102578,13.6477,-0.024781,0.54981,-0.0065887,-0.16304
19,-0.103774,13.7365,-0.028266,0.58968,-0.022893,-0.18483
19,-0.106342,13.8318,-0.031952,0.62723,-0.041375,-0.19952
19,-0.110099,13.9294,-0.035271,0.65866,-0.061327,-0.20531
19,-0.115589,14.0261,-0.038004,0.68074,-0.081858,-0.20659
19,-0.121948,14.1197,-0.040265,0.69093,-0.10252,-0.20357
19,-0.127365,14.2091,-0.041786,0.68687,-0.12287,-0.19368
19,-0.131782,14.2948,-0.042406,0.668,-0.14224,-0.17675
19,-0.135725,14.3776,-0.042636,0.63534,-0.15992,-0.15877
19,-0.140158,14.4586,-0.042504,0.58973,-0.17579,-0.14275
19,-0.14634,14.5378,-0.04098,0.53268,-0.19007,-0.12024
19,-0.154099,14.6133,-0.03739,0.46734,-0.20209,-0.086629
19,-0.162624,14.6815,-0.032156,0.39702,-0.21075,-0.048226
19,-0.171045,14.7379,-0.025621,0.32445,-0.21558,-0.0097075
19,-0.178012,14.7789,-0.017464,0.25236,-0.21655,0.028287
19,-0.183328,14.8027,-0.012459,0.19354,-0.21372,0.054256
19,-0.18716,14.8093,-0.0082723,0.1346,-0.20829,0.076599
19,-0.189171,14.8009,-0.0050261,0.07551,-0.20063,0.094513
19,-0.189559,14.7803,-0.0022042,0.015429,-0.19118,0.1118
19,-0.188195,14.7502,0.0012753,-0.046894,-0.18,0.13388
19,-0.184539,14.7131,0.0070426,-0.11171,-0.16661,0.16753
19,-0.178553,14.6712,0.015211,-0.17698,-0.14986,0.21332
19,-0.170653,14.6259,0.025541,-0.23902,-0.12853,0.26696
19,-0.161341,14.5783,0.0375,-0.29356,-0.10183,0.32627
19,-0.150517,14.5309,0.040984,-0.31404,-0.069205,0.33663
19,-0.146866,14.5067,0.045938,-0.34311,-0.035542,0.15752
19,-0.14391,14.4783,0.050619,-0.36585,-0.019789,0.17413
19,-0.141834,14.4458,0.05478,-0.3824,-0.0023769,0.18659
19,-0.140133,14.4084,0.058446,-0.39343,0.016282,0.19753
19,-0.137608,14.3648,0.061433,-0.3996,0.036036,0.20726
19,-0.132255,14.3144,0.06321,-0.40166,0.056762,0.21026
19,-0.123678,14.2594,0.063468,-0.40033,0.077788,0.20251
19,-0.111542,14.2035,0.062174,-0.3959,0.098039,0.1875
19,-0.096045,14.1508,0.05936,-0.38868,0.11679,0.17156
19,-0.096045,14.1508,0.05936,-0.38868,0.13395,0.17156
20,0.0534147,14.5188,0.037292,0.18811,0.1234,-0.078755
20,0.0594694,14.5429,0.038576,0.16146,0.11552,-0.054506
20,0.0641625,14.5609,0.039007,0.13401,0.11007,-0.033168
20,0.0678474,14.5724,0.03839,0.10657,0.10675,-0.017203
20,0.0710933,14.578,0.036458,0.079927,0.10503,-0.0053641
20,0.0741339,14.579,0.033431,0.054565,0.1045,0.0064361
20,0.0769652,14.5764,0.029526,0.030517,0.10514,0.020352
20,0.0796102,14.571,0.024886,0.0072933,0.10717,0.033269
20,0.0820747,14.5632,0.019528,-0.015723,0.1105,0.041835
20,0.0844689,14.5536,0.013431,-0.038495,0.11469,0.046322
20,0.0870024,14.5429,0.0068925,-0.059894,0.11932,0.048881
20,0.0895984,14.531,0.00077941,-0.077912,0.12421,0.052027
20,0.0916933,14.5175,-0.0042909,-0.090739,0.12941,0.056415
20,0.0925577,14.5023,-0.0084986,-0.097836,0.13505,0.060203
20,0.091904,14.4863,-0.012223,-0.099745,0.14107,0.061634
20,0.0899944,14.4708,-0.015778,-0.097185,0.14723,0.061355
20,0.0870984,14.4563,-0.019173,-0.090303,0.15337,0.059128
20,0.0833864,14.4424,-0.022205,-0.078706,0.15928,0.050349
20,0.0788678,14.4282,-0.024878,-0.062374,0.16432,0.032983
20,0.0734187,14.4134,-0.027445,-0.042124,0.16761,0.010797
20,0.0671997,14.399,-0.030279,-0.019369,0.16869,-0.012151
20,0.0610283,14.387,-0.033558,0.004805,0.16748,-0.035203
20,0.0555806,14.3795,-0.037245,0.030575,0.16396,-0.060005
20,0.0508502,14.3767,-0.040736,0.059034,0.15796,-0.084973
20,0.0466473,14.3785,-0.043117,0.090771,0.14946,-0.10338
20,0.042578,14.3846,-0.044106,0.12599,0.13912,-0.11319
20,0.0386194,14.3958,-0.044161,0.16487,0.1278,-0.11899
20,0.0351997,14.4135,-0.04345,0.20701,0.11591,-0.12235
20,0.0323181,14.4384,-0.041802,0.2512,0.10367,-0.12349
20,0.0295788,14.4694,-0.039748,0.29568,0.091321,-0.12596
20,0.026444,14.5042,-0.037442,0.31543,0.078725,-0.13162
20,0.0224818,14.5406,-0.035038,0.33559,0.065563,-0.13741
20,0.0172034,14.5786,-0.032881,0.35551,0.051823,-0.14051
20,0.0110862,14.6204,-0.030992,0.37533,0.037772,-0.13789
20,0.00567025,14.6678,-0.029295,0.39563,0.023982,-0.12904
20,0.00178207,14.7227,-0.027435,0.41651,0.011078,-0.11407
20,-0.00122393,14.786,-0.025401,0.43696,-0.00032899,-0.092581
20,-0.00351328,14.8564,-0.023758,0.45529,-0.0095871,-0.061968
20,-0.00473594,14.9306,-0.022527,0.47056,-0.015784,-0.023468
20,-0.00607646,15.0047,-0.021158,0.45506,-0.018131,-0.0089845
20,-0.00768492,15.0298,-0.020621,0.46071,-0.019029,-0.04196
20,-0.00904703,15.0582,-0.019566,0.46606,-0.023225,-0.037423
20,-0.0101816,15.0905,-0.017612,0.47111,-0.026967,-0.03084
20,-0.0111335,15.1274,-0.014889,0.47447,-0.030052,-0.019727
20,-0.0119436,15.1698,-0.012271,0.47445,-0.032024,-0.0090494
20,-0.0122929,15.2176,-0.01037,0.46913,-0.032929,-0.0025102
20,-0.0121821,15.2697,-0.0088559,0.45653,-0.03318,0.0027025
20,-0.0123163,15.3241,-0.0076861,0.43591,-0.03291,0.0074175
20,-0.0127366,15.3795,-0.0072733,0.40812,-0.032168,0.010862
20,-0.0127366,15.3795,-0.0072733,0.40812,-0.031082,0.010862
21,-0.0789724,12.1349,-0.00095844,0.026877,0.1621,-0.037978
21,-0.0788437,12.1385,-0.0016974,0.038098,0.15831,-0.042004
21,-0.078717,12.1417,-0.0015353,0.053555,0.15411,-0.045831
21,-0.078615,12.1446,-0.0010571,0.073373,0.14952,-0.048698
21,-0.0785318,12.1473,-0.00078027,0.096166,0.14465,-0.050756
21,-0.0784452,12.1497,-0.00069562,0.1203,0.13958,-0.051682
21,-0.0783583,12.1519,-0.00078314,0.14487,0.13441,-0.052299
21,-0.0782885,12.1536,-0.00088552,0.16992,0.12918,-0.051682
21,-0.0782171,12.1548,-0.00071832,0.19592,0.12401,-0.049004
21,-0.0787139,12.1568,-0.00035943,0.22305,0.11911,-0.044995
21,-0.0799308,12.1617,-0.00010227,0.25104,0.11461,-0.088183
21,-0.0808395,12.1768,3.13E-05,0.29161,0.10579,-0.082867
21,-0.0808147,12.1991,0.00039483,0.33499,0.097507,-0.076371
21,-0.0803466,12.2303,0.0010327,0.38015,0.08987,-0.068655
21,-0.0800647,12.2695,0.0014161,0.42577,0.083004,-0.062283
21,-0.0800158,12.3153,0.0010006,0.47065,0.076776,-0.059558
21,-0.0802254,12.3667,-0.00031166,0.51429,0.07082,-0.060876
21,-0.0804777,12.4237,-0.002357,0.55695,0.064732,-0.065564
21,-0.0802653,12.4875,-0.0053261,0.59888,0.058176,-0.074209
21,-0.0796553,12.5587,-0.0079715,0.6396,0.050755,-0.08354
21,-0.0791769,12.637,-0.0081448,0.67732,0.042401,-0.083729
21,-0.0787812,12.7217,-0.0058824,0.70755,0.034028,-0.06997
21,-0.0779273,12.8117,-0.0026486,0.73031,0.027031,-0.05074
21,-0.0765497,12.9049,0.00017803,0.74365,0.021957,-0.033385
21,-0.0756996,12.9988,0.0022005,0.7478,0.018619,-0.019893
21,-0.0764441,13.091,0.0042422,0.74434,0.016629,-0.0069823
21,-0.0789817,13.1805,0.0068131,0.73454,0.015931,0.007115
21,-0.0830026,13.2675,0.0094861,0.71842,0.016643,0.019471
21,-0.0888692,13.3526,0.011744,0.69511,0.01859,0.031403
21,-0.0946569,13.436,0.013657,0.66408,0.02173,0.043151
21,-0.0962204,13.5164,0.01574,0.62556,0.026045,0.051306
21,-0.0926043,13.5919,0.017937,0.58002,0.031176,0.052858
21,-0.0861118,13.6598,0.019742,0.52852,0.036462,0.047943
21,-0.0799906,13.7175,0.021248,0.47316,0.041256,0.042235
21,-0.0756637,13.7651,0.023613,0.41691,0.045479,0.04346
21,-0.0715313,13.804,0.027839,0.36241,0.049825,0.053042
21,-0.0665992,13.8357,0.03408,0.31078,0.05513,0.069665
21,-0.0615055,13.8606,0.041994,0.26183,0.062096,0.092809
21,-0.0567783,13.8777,0.051897,0.21491,0.071377,0.12364
21,-0.0523411,13.8868,0.062116,0.16939,0.083741,0.15566
21,-0.0476964,13.8881,0.068603,0.12509,0.099307,0.17173
21,-0.0429063,13.8817,0.069895,0.082631,0.11648,0.16648
21,-0.0384434,13.8687,0.067628,0.044041,0.13313,0.14913
21,-0.0340539,13.8512,0.065292,0.012302,0.14804,0.13289
21,-0.0284745,13.8326,0.065201,-0.010658,0.16133,0.12497
21,-0.0207659,13.8158,0.0657,-0.024822,0.17383,0.11834
21,-0.0108218,13.8021,0.065045,-0.031577,0.18566,0.10754
21,0.000984624,13.7911,0.0633,-0.032395,0.19641,0.093103
21,0.0149241,13.7824,0.060796,-0.028083,0.20572,0.069259
21,0.0295752,13.7747,0.057745,-0.019046,0.21265,0.037599
21,0.0409849,13.7666,0.054042,-0.0052073,0.21641,0.0095684
21,0.047186,13.7571,0.049808,0.014165,0.21737,-0.0083897
21,0.0491439,13.7478,0.045555,0.039615,0.21653,-0.018497
21,0.0505926,13.7422,0.041345,0.070534,0.21468,-0.03068
21,0.0547393,13.7438,0.036527,0.10501,0.21161,-0.052725
21,0.0598677,13.7544,0.030632,0.14094,0.20634,-0.080748
21,0.0634916,13.7726,0.023577,0.17722,0.19826,-0.11067
21,0.0650944,13.7958,0.015556,0.21357,0.1872,-0.1435
21,0.0648146,13.8216,0.0064529,0.25005,0.17285,-0.1808
21,0.0631485,13.8487,-0.0030326,0.28708,0.15477,-0.2192
21,0.0603882,13.8777,-0.010919,0.32534,0.13285,-0.24711
21,0.0567095,13.9101,-0.016206,0.36506,0.10814,-0.25755
21,0.0526659,13.948,-0.019113,0.40491,0.08238,-0.25169
21,0.0486364,13.9923,-0.021517,0.44188,0.057211,-0.23895
21,0.0445789,14.0426,-0.025599,0.47266,0.033316,-0.23239
21,0.0404984,14.0977,-0.030424,0.49563,0.010077,-0.23137
21,0.036333,14.1565,-0.033994,0.51179,-0.01306,-0.22877
21,0.0320974,14.2183,-0.035585,0.5236,-0.035937,-0.22046
21,0.02783,14.2825,-0.035335,0.53337,-0.057983,-0.20077
21,0.0235099,14.3489,-0.033746,0.54217,-0.078061,-0.17125
21,0.0191464,14.4172,-0.031089,0.54958,-0.095186,-0.13949
21,0.0147732,14.4873,-0.027535,0.55409,-0.10913,-0.10937
21,0.0109184,14.5577,-0.023681,0.55386,-0.12007,-0.081379
21,0.00755834,14.6259,-0.020058,0.54776,-0.12821,-0.052595
21,0.00354146,14.6891,-0.016725,0.53591,-0.13347,-0.020799
21,-0.000979327,14.7456,-0.013639,0.51927,-0.13555,0.01109
21,-0.0044955,14.7962,-0.010691,0.49882,-0.13444,0.040557
21,-0.00607497,14.843,-0.0078503,0.47533,-0.13038,0.068735
21,-0.00585485,14.8883,-0.0051255,0.44933,-0.12351,0.097607
21,-0.0043434,14.9331,-0.0024699,0.42122,-0.11375,0.12743
21,-0.00179,14.9768,2.68E-05,0.39028,-0.10101,0.15334
21,0.00163855,15.0182,0.002478,0.35804,-0.085674,0.16523
21,0.00530409,15.0557,0.0046342,0.32522,-0.069151,0.15945
21,0.00852075,15.0878,0.0065126,0.29314,-0.053206,0.14086
21,0.0111292,15.1145,0.0086853,0.26331,-0.03912,0.1227
21,0.0132212,15.1363,0.011089,0.23658,-0.02685,0.11142
21,0.0149519,15.1541,0.012973,0.21261,-0.015708,0.10488
21,0.0163968,15.1689,0.013863,0.19033,-0.0052202,0.10102
21,0.017579,15.1812,0.013841,0.16865,0.0048815,0.095074
21,0.0185702,15.1913,0.013085,0.14627,0.014389,0.08636
21,0.0192,15.1978,0.01243,0.13095,0.023025,0.080139
21,0.0197292,15.2033,0.011216,0.11521,0.031039,0.074078
21,0.0201867,15.2081,0.0097193,0.099976,0.038447,0.066052
21,0.0205836,15.2122,0.0083164,0.086127,0.045052,0.057222
21,0.020912,15.2157,0.0071319,0.074099,0.050774,0.047823
21,0.0211984,15.2188,0.006147,0.06383,0.055556,0.037598
21,0.0214498,15.2214,0.0052885,0.054987,0.059316,0.026542
21,0.0216501,15.2237,0.0045251,0.047243,0.06197,0.01398
21,0.021827,15.2256,0.0038618,0.040402,0.063368,-0.0024593
21,0.021827,15.2256,0.0038618,0.040402,0.063122,-0.0024593
22,0.0450696,15.9519,-0.014185,0.51825,0.28099,-0.40855
22,0.0420889,16.0146,-0.02152,0.51784,0.24014,-0.419
22,0.0385043,16.0759,-0.027319,0.51,0.19824,-0.42245
22,0.034657,16.1375,-0.030484,0.49799,0.15599,-0.41751
22,0.0310267,16.2004,-0.030872,0.48351,0.11424,-0.40181
22,0.0273523,16.2637,-0.028896,0.46596,0.074061,-0.3735
22,0.0234306,16.3253,-0.025787,0.44346,0.036711,-0.33531
22,0.019265,16.3831,-0.022491,0.41431,0.0031803,-0.29214
22,0.014845,16.4353,-0.01956,0.37821,-0.026034,-0.24725
22,0.0101355,16.4798,-0.017261,0.33676,-0.050759,-0.20078
22,0.0049627,16.5147,-0.015056,0.29261,-0.070838,-0.15246
22,-4.05E-05,16.5399,-0.012679,0.24783,-0.086083,-0.10147
22,-0.00382412,16.5581,-0.010167,0.2029,-0.09623,-0.049754
22,-0.00551956,16.5732,-0.0076604,0.15715,-0.10121,-0.0033126
22,-0.00435559,16.587,-0.0053698,0.11008,-0.10154,0.034822
22,-0.000720806,16.5979,-0.003034,0.061948,-0.098055,0.066204
22,0.00353653,16.6023,-0.00055541,0.013322,-0.091434,0.092081
22,0.00730858,16.5972,0.0017978,-0.035552,-0.082226,0.11147
22,0.0103633,16.5829,0.0039749,-0.084211,-0.071079,0.12259
22,0.0127982,16.5619,0.0059996,-0.13126,-0.05882,0.12523
22,0.0149573,16.5372,0.0081156,-0.1747,-0.046297,0.12302
22,0.0167304,16.5103,0.010142,-0.2135,-0.033995,0.11837
22,0.0181708,16.4817,0.011549,-0.24901,-0.022158,0.1123
22,0.0193361,16.4518,0.011792,-0.28388,-0.010928,0.10417
22,0.020287,16.4205,0.010137,-0.31935,-0.00051037,0.092526
22,0.0212842,16.3876,0.0068131,-0.35367,0.0087422,0.077734
22,0.0223198,16.3519,0.0034054,-0.38313,0.016516,0.061536
22,0.0228606,16.312,0.00057966,-0.40471,0.022669,0.043402
22,0.0227947,16.2669,-0.0018106,-0.41788,0.027009,0.024172
22,0.0221347,16.2173,-0.0041039,-0.42385,0.029426,0.0049723
22,0.0211939,16.1653,-0.0067184,-0.42383,0.029924,-0.014905
22,0.0202445,16.1129,-0.0092301,-0.41785,0.028433,-0.033955
22,0.0192748,16.0601,-0.011407,-0.40508,0.025038,-0.051425
22,0.0180645,16.0054,-0.012951,-0.38458,0.019895,-0.066626
22,0.0159183,15.9483,-0.014063,-0.3558,0.013233,-0.080477
22,0.0129055,15.8906,-0.015201,-0.31923,0.005185,-0.093323
22,0.0103473,15.836,-0.016202,-0.276,-0.0041473,-0.10256
22,0.0084679,15.7878,-0.016865,-0.22705,-0.014403,-0.10621
22,0.00674202,15.7471,-0.017367,-0.17329,-0.025024,-0.10509
22,0.00459034,15.7142,-0.017612,-0.11593,-0.035534,-0.099484
22,0.00152046,15.6895,-0.017538,-0.056427,-0.045482,-0.090044
22,-0.00172992,15.6746,-0.017319,0.0040254,-0.054486,-0.079144
22,-0.00464261,15.6716,-0.016966,0.065316,-0.062401,-0.068434
22,-0.00656521,15.6826,-0.016385,0.12789,-0.069244,-0.057938
22,-0.00783984,15.7089,-0.015233,0.19186,-0.075038,-0.04719
22,-0.00911805,15.7491,-0.013431,0.2564,-0.079757,-0.036066
22,-0.0100834,15.7999,-0.011302,0.31933,-0.083364,-0.023799
22,-0.0108688,15.8579,-0.0088101,0.37767,-0.085744,-0.0072351
22,-0.0119397,15.9203,-0.0062354,0.42869,-0.086467,0.011451
22,-0.0130889,15.9854,-0.0036843,0.46982,-0.085322,0.029079
23,-0.0821216,12.176,0.00035463,0.14744,-0.24184,0.10661
23,-0.0818081,12.1765,0.00068203,0.17917,-0.23118,0.15314
23,-0.0814894,12.1767,0.00082115,0.20945,-0.21586,0.17457
23,-0.0815402,12.1778,0.000857,0.23797,-0.19841,0.18031
23,-0.0818676,12.1818,0.00080604,0.26465,-0.18038,0.17665
23,-0.0821248,12.1904,0.0006988,0.28951,-0.16271,0.16677
23,-0.0823128,12.2049,0.0005725,0.31259,-0.14603,0.15336
23,-0.0824035,12.2259,0.00042803,0.33384,-0.1307,0.13858
23,-0.0822497,12.2532,0.00028113,0.35345,-0.11684,0.12333
23,-0.0819562,12.2863,-0.00028736,0.37221,-0.10451,0.10649
23,-0.081767,12.3234,-0.0014189,0.39158,-0.093858,0.25473
23,-0.0813714,12.373,-0.0028263,0.4332,-0.068385,0.21431
23,-0.0811362,12.4273,-0.0040138,0.47994,-0.046954,0.17718
23,-0.0810075,12.4853,-0.0052403,0.53148,-0.029236,0.1448
23,-0.0809931,12.5465,-0.0071126,0.58561,-0.014756,0.11589
23,-0.0810734,12.6102,-0.0094251,0.63907,-0.003167,0.089802
23,-0.0812056,12.6761,-0.011792,0.68831,0.0058133,0.066972
23,-0.081394,12.7435,-0.014532,0.73036,0.01251,0.045132
23,-0.0816156,12.8122,-0.018269,0.76309,0.017024,0.021105
23,-0.0826676,12.8832,-0.022753,0.78568,0.019134,-0.0045322
23,-0.0849594,12.9591,-0.027325,0.79916,0.018681,-0.030276
23,-0.0874608,13.0429,-0.032101,0.80056,0.015653,-0.088882
23,-0.0895169,13.1366,-0.036882,0.79508,0.0067652,-0.13823
23,-0.0920208,13.2408,-0.041686,0.78399,-0.0070576,-0.1798
23,-0.0960928,13.353,-0.046489,0.76823,-0.025037,-0.2151
23,-0.100975,13.4686,-0.051292,0.7486,-0.046548,-0.24443
23,-0.105896,13.5816,-0.056108,0.72577,-0.070991,-0.2689
23,-0.111467,13.6866,-0.060927,0.70045,-0.097881,-0.28838
23,-0.118787,13.7794,-0.066171,0.67316,-0.12672,-0.30469
23,-0.127463,13.8576,-0.069503,0.64351,-0.15719,-0.31084
23,-0.136416,13.9217,-0.068185,0.60976,-0.18827,-0.29754
23,-0.145574,13.9742,-0.061732,0.56973,-0.21803,-0.26158
23,-0.1549,14.0174,-0.051714,0.52092,-0.24418,-0.20741
23,-0.164379,14.0533,-0.040123,0.46145,-0.26492,-0.14639
23,-0.173971,14.0829,-0.028112,0.39223,-0.27956,-0.084991
23,-0.183657,14.1074,-0.016734,0.31652,-0.28806,-0.02609
23,-0.193421,14.1276,-0.0056572,0.23948,-0.29067,0.033919
23,-0.203248,14.1444,0.0057902,0.16613,-0.28728,0.097848
23,-0.213958,14.1585,0.018722,0.10043,-0.27749,0.16962
23,-0.221673,14.1702,0.032803,0.044785,-0.26053,0.24543
23,-0.22133,14.1786,0.047083,-0.00091582,-0.23599,0.31563
23,-0.210924,14.1823,0.061247,-0.037933,-0.20443,0.37637
23,-0.192944,14.1784,0.075182,-0.066859,-0.16679,0.42936
23,-0.172266,14.1637,0.089362,-0.087511,-0.12385,0.48261
23,-0.152316,14.1375,0.10417,-0.099614,-0.075591,0.54065
23,-0.134444,14.1016,0.11935,-0.10336,-0.021527,0.59902
23,-0.11721,14.0605,0.13466,-0.099632,0.038376,0.65501
23,-0.0998868,14.0188,0.15006,-0.089721,0.10388,0.70637
23,-0.0813436,13.9803,0.16594,-0.075073,0.17451,0.75357
23,-0.0618575,13.9472,0.17802,-0.057051,0.24987,0.78398
24,0.0126344,18.4717,0.061065,0.42582,0.23337,-0.1208
24,0.0244564,18.5084,0.054624,0.44684,0.22129,-0.1486
24,0.0292216,18.5484,0.04767,0.47372,0.20643,-0.16368
24,0.0270435,18.592,0.039719,0.50713,0.19006,-0.17284
24,0.0204507,18.642,0.030996,0.54595,0.17277,-0.18014
24,0.0120879,18.7011,0.021976,0.58661,0.15476,-0.18816
24,0.00397183,18.7718,0.011882,0.62469,0.13594,-0.20153
24,-0.00209742,18.8549,-4.80E-05,0.65579,0.11579,-0.22067
24,-0.00621018,18.9471,-0.013689,0.67679,0.093724,-0.24319
24,-0.00971784,19.0436,-0.027625,0.68758,0.069405,-0.26486
24,-0.0136726,19.1403,-0.039339,0.69038,0.042919,-0.27767
24,-0.0181814,19.2343,-0.04641,0.68841,0.015153,-0.27425
24,-0.0229644,19.3255,-0.047311,0.6838,-0.012272,-0.2493
24,-0.0279742,19.4141,-0.041995,0.67601,-0.037202,-0.20231
24,-0.032632,19.4999,-0.032866,0.66219,-0.057432,-0.14377
24,-0.0367222,19.5808,-0.02247,0.63963,-0.07181,-0.081274
24,-0.0412246,19.6543,-0.012732,0.60573,-0.079937,-0.019807
24,-0.0469105,19.7184,-0.00538,0.55964,-0.081918,0.037013
24,-0.0534964,19.7718,-0.00026524,0.50468,-0.078216,0.09036
24,-0.0603267,19.8156,0.0040121,0.44562,-0.06918,0.13639
24,-0.0660431,19.8524,0.0083667,0.3868,-0.055542,0.16939
24,-0.0683634,19.8852,0.012621,0.33086,-0.038602,0.18377
24,-0.0653999,19.916,0.016416,0.27813,-0.020225,0.17787
24,-0.0569465,19.944,0.019833,0.22805,-0.0024376,0.1597
24,-0.0452807,19.9664,0.022672,0.18036,0.013533,0.13657
24,-0.0328528,19.9804,0.024889,0.13594,0.027189,0.11482
24,-0.0214923,19.9833,0.027046,0.095878,0.038671,0.099711
24,-0.0128574,19.9742,0.029567,0.061022,0.048642,0.088495
24,-0.00674066,19.9564,0.032423,0.031904,0.057492,0.079361
24,-0.00169361,19.9349,0.034917,0.0084207,0.065428,0.071063
24,0.0030608,19.9139,0.03768,-0.011133,0.072534,0.06713
24,0.0070598,19.8961,0.038651,-0.028507,0.079247,0.058394
24,0.00986791,19.8818,0.036884,-0.044703,0.085086,0.042121
24,0.0116908,19.8702,0.032273,-0.059403,0.089298,0.018034
24,0.0127119,19.8606,0.025948,-0.071163,0.091102,-0.0098995
24,0.0130564,19.8527,0.019131,-0.078614,0.090112,-0.038185
24,0.0128676,19.8461,0.012709,-0.080439,0.086293,-0.065235
24,0.0122245,19.8404,0.007484,-0.076169,0.07977,-0.088988
24,0.0113502,19.8356,0.0033157,-0.067472,0.070871,-0.11061
24,0.00950813,19.8325,0.0007922,-0.056683,0.05981,-0.12523
24,0.00931671,19.8302,-0.0016684,-0.048615,0.047287,-0.086193
24,0.00893768,19.8282,-0.0039828,-0.041432,0.038668,-0.097118
24,0.00836834,19.8266,-0.0058689,-0.035452,0.028956,-0.098845
24,0.00759977,19.8252,-0.007375,-0.030433,0.019071,-0.093625
24,0.0066157,19.8241,-0.0085474,-0.026078,0.0097087,-0.084799
24,0.00540968,19.8231,-0.009404,-0.022282,0.0012288,-0.075653
24,0.00392538,19.8224,-0.0099822,-0.018924,-0.0063365,-0.068897
24,0.00211058,19.8219,-0.010278,-0.015759,-0.013226,-0.062104
24,-0.0001092,19.8215,-0.010418,-0.012816,-0.019437,-0.053974
24,-0.0001092,19.8215,-0.010418,-0.012816,-0.024834,-0.053974
25,0.0541703,15.0355,-0.0301,0.33127,0.077121,0.0050642
25,0.0494071,15.0572,-0.029152,0.29547,0.077628,0.026346
25,0.0447163,15.0696,-0.02796,0.25909,0.080262,0.039801
25,0.04052,15.0753,-0.026586,0.22226,0.084242,0.044252
25,0.0372985,15.0776,-0.025304,0.18583,0.088668,0.04023
25,0.0348572,15.0788,-0.024197,0.15105,0.092691,0.030793
25,0.0328376,15.0801,-0.022946,0.11903,0.09577,0.01991
25,0.0311668,15.0814,-0.021424,0.090581,0.097761,0.0096579
25,0.0297847,15.0825,-0.020093,0.066518,0.098727,2.56E-05
25,0.0286281,15.0834,-0.019018,0.048,0.098729,-0.010347
25,0.0276581,15.0841,-0.017332,0.035918,0.097695,-0.018573
25,0.0268688,15.0847,-0.015181,0.029767,0.095837,-0.023334
25,0.026229,15.0851,-0.013361,0.027534,0.093504,-0.027948
25,0.0256997,15.0855,-0.012271,0.026608,0.090709,-0.034162
25,0.0252619,15.0863,-0.01206,0.025151,0.087293,-0.042719
25,0.0248733,15.088,-0.012043,0.0229,0.083021,-0.052913
25,0.024315,15.0903,-0.011944,0.020418,0.07773,-0.063493
25,0.0234714,15.0925,-0.012059,0.018063,0.07138,-0.075544
25,0.0221812,15.095,-0.012391,0.016049,0.063826,-0.08822
25,0.0205084,15.0997,-0.013134,0.01535,0.055004,-0.10141
25,0.0195063,15.1073,-0.013912,0.017608,0.044863,-0.11356
25,0.0190458,15.1167,-0.014095,0.024326,0.033507,-0.12074
25,0.0179936,15.1247,-0.013141,0.036859,0.021433,-0.11863
25,0.015978,15.1285,-0.010898,0.056126,0.00957,-0.10604
25,0.0131787,15.1279,-0.0077321,0.081251,-0.0010344,-0.086216
25,0.0107707,15.1246,-0.0039287,0.10978,-0.009656,-0.062336
25,0.00894981,15.1209,-3.86E-05,0.13951,-0.01589,-0.03701
25,0.00704855,15.1175,0.0034296,0.1691,-0.019591,-0.012929
25,0.00500187,15.1146,0.0065423,0.19761,-0.020884,0.0083432
25,0.00236106,15.1141,0.0094661,0.22407,-0.020049,0.028151
25,-0.000165828,15.1194,0.010782,0.22824,-0.017234,0.039326
25,-0.00132175,15.1334,0.011769,0.23426,-0.013301,0.047942
25,-5.37E-05,15.1589,0.013621,0.24551,-0.0085072,0.058699
25,0.00390417,15.1977,0.016839,0.26441,-0.0026373,0.0737
25,0.00979759,15.2488,0.021071,0.29071,0.0047327,0.091769
25,0.0170159,15.3076,0.025058,0.32205,0.01391,0.10923
25,0.0242377,15.3693,0.028747,0.35642,0.024833,0.12593
25,0.0303306,15.4306,0.033011,0.39389,0.037426,0.14508
25,0.0352658,15.4903,0.038099,0.4356,0.051934,0.16715
25,0.0394407,15.5478,0.039419,0.43585,0.06865,0.17287
25,0.041071,15.5638,0.042824,0.45601,0.085937,0.088696
25,0.0425836,15.5853,0.045845,0.47354,0.094806,0.10146
25,0.0452354,15.6157,0.047796,0.48642,0.10495,0.11014
25,0.049656,15.6573,0.048309,0.49254,0.11597,0.11285
25,0.0553201,15.7093,0.047601,0.49132,0.12725,0.11074
25,0.0608876,15.7687,0.045845,0.48443,0.13832,0.10477
25,0.0664442,15.8338,0.043816,0.47424,0.1488,0.096963
25,0.0730706,15.9053,0.04239,0.46261,0.1585,0.08965
25,0.0811991,15.9858,0.041758,0.45046,0.16746,0.084059
25,0.0811991,15.9858,0.041758,0.45046,0.17587,0.084059
26,0.0279674,13.797,-0.0428,0.042911,0.18833,-0.55572
26,0.0228471,13.8045,-0.043904,0.03515,0.13275,-0.54034
26,0.0178083,13.8081,-0.042289,0.024551,0.078721,-0.50772
26,0.012837,13.8095,-0.038058,0.011321,0.027948,-0.45898
26,0.00794785,13.81,-0.032136,-0.0052508,-0.01795,-0.40098
26,0.00304765,13.8106,-0.025966,-0.026726,-0.058048,-0.34171
26,-0.00180902,13.8115,-0.021027,-0.054257,-0.092218,-0.28696
26,-0.00644542,13.8123,-0.017079,-0.087833,-0.12091,-0.23407
26,-0.0102941,13.8113,-0.014083,-0.12558,-0.14432,-0.18267
26,-0.0130569,13.8062,-0.011447,-0.16383,-0.16259,-0.13231
26,-0.0153688,13.7951,-0.0082125,-0.1994,-0.17582,-0.082529
26,-0.0169786,13.777,-0.0049184,-0.23117,-0.18407,-0.037302
26,-0.016244,13.754,-0.0017984,-0.25994,-0.1878,0.0039199
26,-0.0123457,13.7287,0.0011775,-0.28675,-0.18741,0.043586
26,-0.00602781,13.7013,0.0040145,-0.31215,-0.18305,0.082317
26,0.000554516,13.6688,0.0070196,-0.33736,-0.17482,0.12119
26,0.00498642,13.6277,0.0098939,-0.3641,-0.1627,0.15854
26,0.00766567,13.5768,0.012107,-0.39298,-0.14685,0.19041
26,0.00909243,13.5183,0.013504,-0.42155,-0.12781,0.21208
26,0.0100227,13.4573,0.014225,-0.44623,-0.1066,0.22204
26,0.0115425,13.3982,0.015275,-0.46418,-0.084394,0.22569
26,0.0130103,13.3422,0.016895,-0.47471,-0.061826,0.22626
26,0.0142115,13.2882,0.01757,-0.48045,-0.0392,0.21807
26,0.015192,13.236,0.01591,-0.48447,-0.017393,0.19541
26,0.0159769,13.1857,0.01209,-0.48794,0.0021486,0.16145
26,0.0170868,13.1359,0.0076585,-0.48883,0.018294,0.1252
26,0.0179787,13.0833,0.0044075,-0.4838,0.030814,0.095384
26,0.0177689,13.0263,0.0020733,-0.47017,0.040352,0.070549
26,0.0167135,12.9682,0.00065569,-0.44759,0.047407,0.050451
26,0.0153928,12.9138,-0.0001354,-0.41894,0.052452,0.033756
26,0.0151822,12.8667,-0.0013295,-0.38765,0.055828,0.015845
26,0.0168111,12.8276,-0.0025806,-0.35526,0.057412,0.00047754
26,0.0188957,12.7931,-0.0038788,-0.32148,0.05746,-0.012983
26,0.0194751,12.7598,-0.0051107,-0.28588,0.056162,-0.028964
26,0.0181513,12.7254,-0.0061693,-0.24847,0.053265,-0.046391
26,0.0158716,12.6911,-0.0075452,-0.20852,0.048626,-0.064976
26,0.0138014,12.6601,-0.0088283,-0.16429,0.042129,-0.082037
26,0.0118124,12.6365,-0.0093303,-0.11517,0.033925,-0.094705
26,0.0104038,12.6231,-0.0096403,-0.063303,0.024454,-0.10465
26,0.00975186,12.6194,-0.010463,-0.011383,0.01399,-0.11241
26,0.00888347,12.6229,-0.012387,0.039565,0.0027488,-0.12081
26,0.0078492,12.6317,-0.015841,0.090281,-0.0093325,-0.13283
26,0.00645394,12.6453,-0.017753,0.11888,-0.022616,-0.13562
26,0.00497063,12.6642,-0.018878,0.14773,-0.036178,-0.13298
26,0.00363823,12.6887,-0.01912,0.17834,-0.049476,-0.12579
26,0.00199634,12.7188,-0.01884,0.2115,-0.062056,-0.11712
26,0.00032217,12.7547,-0.01813,0.24647,-0.073768,-0.10787
26,-0.000891723,12.796,-0.016877,0.28048,-0.084555,-0.097334
26,-0.0025672,12.8416,-0.016213,0.31003,-0.094288,-0.090224
26,-0.0055327,12.891,-0.016644,0.33361,-0.10331,-0.08861
27,0.0775987,13.6393,-0.024347,0.14091,0.18223,-0.28165
27,0.0740798,13.6543,-0.027151,0.13301,0.15407,-0.25286
27,0.0703526,13.6665,-0.029081,0.1233,0.12878,-0.21686
27,0.0664664,13.6765,-0.030297,0.11312,0.10709,-0.17708
27,0.0625276,13.6848,-0.030921,0.10272,0.089385,-0.14087
27,0.0586373,13.6917,-0.031036,0.091911,0.075298,-0.11249
27,0.0547082,13.6972,-0.030749,0.080655,0.064049,-0.089816
27,0.0506023,13.7016,-0.030143,0.069047,0.055068,-0.066708
27,0.0463501,13.7051,-0.029352,0.057562,0.048397,-0.038723
27,0.0422137,13.7078,-0.02831,0.046968,0.044525,-0.0083795
27,0.0385549,13.7097,-0.026954,0.037881,0.043687,0.019147
27,0.0355149,13.7109,-0.025424,0.030469,0.045601,0.039818
27,0.0330132,13.7117,-0.023751,0.024456,0.049583,0.052019
27,0.0309435,13.7124,-0.021965,0.019482,0.054785,0.056477
27,0.0292314,13.713,-0.020125,0.015333,0.060433,0.053253
27,0.0278282,13.7135,-0.018281,0.011935,0.065758,0.044061
27,0.0266673,13.714,-0.0164,0.0093928,0.070164,0.033481
27,0.0256938,13.7143,-0.014489,0.0077573,0.073512,0.025352
27,0.0249016,13.7146,-0.012638,0.0068714,0.076047,0.020072
27,0.0242462,13.7149,-0.010975,0.0064611,0.078055,0.015804
27,0.0236909,13.7151,-0.0096516,0.0062927,0.079635,0.0095264
27,0.0232315,13.7152,-0.0087281,0.0062851,0.080588,0.0010114
27,0.0228514,13.7154,-0.0081419,0.0063511,0.080689,-0.0083498
27,0.022537,13.7155,-0.0078214,0.0063992,0.079854,-0.018346
27,0.0222769,13.7155,-0.0077274,0.0064258,0.078019,-0.028939
27,0.0220749,13.7155,-0.0078339,0.0064478,0.075125,-0.039158
27,0.0219078,13.716,-0.0080997,0.006466,0.071209,-0.049051
27,0.0216248,13.7171,-0.0084775,0.0064942,0.066304,-0.059917
27,0.0210747,13.7189,-0.0089677,0.0065044,0.060313,-0.073108
27,0.0202643,13.7207,-0.0095378,0.0063352,0.053002,-0.086962
27,0.0192517,13.7222,-0.0096798,0.0065408,0.044306,-0.09679
27,0.0180586,13.7234,-0.0099175,0.0067905,0.034627,-0.10313
27,0.0167294,13.7244,-0.010251,0.0070951,0.024314,-0.10592
27,0.0153007,13.7252,-0.010683,0.0074659,0.013721,-0.1061
27,0.0137766,13.7259,-0.011213,0.0079793,0.0031111,-0.10272
27,0.0121604,13.7264,-0.011869,0.0085616,-0.0071614,-0.096871
27,0.010468,13.7269,-0.01266,0.0087047,-0.016848,-0.091101
27,0.00873884,13.7273,-0.01342,0.0079385,-0.025959,-0.086923
27,0.00696616,13.7276,-0.013948,0.0062977,-0.034651,-0.084043
27,0.00517063,13.7275,-0.013543,0.0053751,-0.043055,-0.078546
27,0.00433123,13.7281,-0.013723,0.0048615,-0.05091,-0.044094
27,0.00339648,13.7288,-0.013823,0.0044726,-0.055319,-0.042382
27,0.00234995,13.7296,-0.013854,0.0041585,-0.059557,-0.040736
27,0.00117099,13.7304,-0.013827,0.0039111,-0.063631,-0.039139
27,-0.000149022,13.7315,-0.013732,0.0037241,-0.067545,-0.037505
27,-0.00166211,13.7326,-0.013559,0.0035933,-0.071295,-0.036387
27,-0.00341199,13.7334,-0.0133,0.0035161,-0.074934,-0.035756
27,-0.00521581,13.733,-0.012967,0.0034704,-0.07851,-0.034256
27,-0.00682197,13.7315,-0.012535,0.0035041,-0.081935,-0.030867
27,-0.00682197,13.7315,-0.012535,0.0035041,-0.085022,-0.030867
28,-0.00139161,13.5656,-0.016812,-0.15222,-0.087069,0.11597
28,-0.00534988,13.5589,-0.013763,-0.17495,-0.075472,0.18051
28,-0.00811113,13.549,-0.01084,-0.20037,-0.057422,0.23296
28,-0.00907925,13.5357,-0.0080396,-0.22799,-0.034126,0.26823
28,-0.00857712,13.5182,-0.0053348,-0.25742,-0.0073036,0.29169
28,-0.00705612,13.4961,-0.0027088,-0.28832,0.021866,0.31173
28,-0.00454747,13.469,-0.0001548,-0.32051,0.053039,0.32743
28,-0.00130072,13.4369,0.0023464,-0.35396,0.085782,0.33033
28,0.00222758,13.3992,0.0048104,-0.38836,0.11882,0.31754
28,0.00543601,13.3555,0.007066,-0.4228,0.15057,0.29192
28,0.00801128,13.3062,0.0091623,-0.45581,0.17976,0.25631
28,0.0100759,13.252,0.011081,-0.48589,0.20539,0.21429
28,0.0117708,13.194,0.012398,-0.51189,0.22682,0.1695
28,0.0131466,13.1328,0.012836,-0.53294,0.24377,0.12565
28,0.0142584,13.069,0.012659,-0.54817,0.25634,0.085871
28,0.0151518,13.0031,0.012072,-0.5572,0.26492,0.049907
28,0.0158646,12.9354,0.010961,-0.56008,0.26991,0.015762
28,0.016428,12.8659,0.0094425,-0.55719,0.27149,-0.016842
28,0.0168809,12.7952,0.0076799,-0.549,0.26981,-0.047795
28,0.0170318,12.7239,0.0059256,-0.53588,0.26503,-0.076491
28,0.0169329,12.6539,0.0043625,-0.5184,0.25738,-0.10259
28,0.0168116,12.5871,0.0029574,-0.49729,0.24712,-0.12647
28,0.0166849,12.5253,0.0016503,-0.47322,0.23447,-0.14635
28,0.0165933,12.4698,0.00043075,-0.44672,0.21984,-0.16188
28,0.0167412,12.4219,-0.00071634,-0.4182,0.20365,-0.17753
28,0.0170874,12.3817,-0.0018101,-0.38803,0.1859,-0.19526
28,0.0173737,12.3489,-0.0028531,-0.35647,0.16637,-0.20984
28,0.0175843,12.3225,-0.0038542,-0.32366,0.14539,-0.216
28,0.0175874,12.3012,-0.0048271,-0.28984,0.12379,-0.21375
28,0.0172872,12.2838,-0.0056715,-0.25554,0.10241,-0.20423
28,0.0167362,12.2694,-0.0059557,-0.22123,0.081987,-0.1865
28,0.0159908,12.2574,-0.0062654,-0.18835,0.063337,-0.16565
28,0.0150714,12.2475,-0.0066156,-0.15783,0.046772,-0.14478
28,0.0140081,12.2393,-0.0070348,-0.13039,0.032294,-0.12682
28,0.0128257,12.2326,-0.0076355,-0.10655,0.019612,-0.11336
28,0.0115317,12.227,-0.0084197,-0.086488,0.0082766,-0.10384
28,0.0101584,12.2224,-0.0092762,-0.070203,-0.002107,-0.096951
28,0.00871967,12.2186,-0.010199,-0.057414,-0.011802,-0.092251
28,0.0072267,12.2155,-0.011022,-0.047489,-0.021027,-0.088584
28,0.00568889,12.2129,-0.010872,-0.038789,-0.029886,-0.081319
28,0.00502155,12.2115,-0.011154,-0.033255,-0.038018,-0.043576
28,0.00428084,12.2104,-0.01136,-0.028458,-0.042375,-0.04144
28,0.00345366,12.2096,-0.011487,-0.024304,-0.046519,-0.040765
28,0.00252367,12.209,-0.011541,-0.020708,-0.050596,-0.042438
28,0.00147021,12.2088,-0.011522,-0.017593,-0.054839,-0.044148
28,0.000247913,12.2087,-0.01142,-0.014874,-0.059254,-0.043159
28,-0.00117876,12.2085,-0.011243,-0.012477,-0.06357,-0.040264
28,-0.00281399,12.2077,-0.01098,-0.010342,-0.067596,-0.037216
28,-0.00445692,12.2062,-0.010621,-0.0084179,-0.071318,-0.033918
28,-0.00445692,12.2062,-0.010621,-0.0084179,-0.07471,-0.033918
29,0.00893617,13.2383,0.0075872,-1.1749,0.23581,0.011202
29,0.0101435,13.0971,0.010436,-1.2357,0.23693,-0.00070976
29,0.0116424,12.9533,0.0127,-1.2895,0.23686,-0.010248
29,0.0128298,12.8086,0.013659,-1.3393,0.23583,-0.019309
29,0.0137594,12.6632,0.01328,-1.3876,0.2339,-0.032891
29,0.0150286,12.5157,0.011223,-1.4337,0.23061,-0.057423
29,0.0168946,12.3638,0.0076199,-1.4738,0.22487,-0.091117
29,0.017846,12.2059,0.0042965,-1.5038,0.21576,-0.12323
29,0.0168957,12.0422,0.0025936,-1.5205,0.20343,-0.14764
29,0.0155173,11.8745,0.0022575,-1.5233,0.18867,-0.16579
29,0.0151799,11.7059,0.0021769,-1.5153,0.17209,-0.17768
29,0.0154008,11.5392,0.0018008,-1.5003,0.15432,-0.18127
29,0.0155573,11.3752,0.0012858,-1.482,0.1362,-0.17751
29,0.0156605,11.2132,0.00079387,-1.4628,0.11845,-0.16846
29,0.0157063,11.0526,0.00030138,-1.4441,0.1016,-0.15418
29,0.0151651,10.8941,-0.00076414,-1.4257,0.086181,-0.13948
29,0.0138355,10.7398,-0.0027051,-1.406,0.072233,-0.13028
29,0.0126961,10.5925,-0.0042319,-1.3834,0.059205,-0.11758
29,0.0125695,10.4542,-0.0043038,-1.3566,0.047447,-0.09456
29,0.0129782,10.3263,-0.0041725,-1.325,0.037991,-0.074163
29,0.0132899,10.2078,-0.0049983,-1.2887,0.030575,-0.068979
29,0.0137452,10.0965,-0.0060434,-1.2483,0.023677,-0.070293
29,0.014214,9.98927,-0.0065921,-1.2034,0.016648,-0.069265
29,0.0144175,9.88299,-0.0068815,-1.1534,0.0097211,-0.068854
29,0.0143621,9.77509,-0.0072197,-1.0986,0.0028357,-0.069299
29,0.0135003,9.66441,-0.0073283,-1.0402,-0.0040942,-0.067268
29,0.0114843,9.55179,-0.0070891,-0.98045,-0.010821,-0.062062
29,0.0093822,9.43912,-0.0069768,-0.9211,-0.017027,-0.057018
29,0.0082881,9.32898,-0.0074038,-0.86386,-0.022729,-0.055163
29,0.0071724,9.22448,-0.0081256,-0.80984,-0.028245,-0.055262
29,0.0051833,9.12838,-0.008828,-0.75892,-0.033772,-0.056924
29,0.00331402,9.04261,-0.0097381,-0.70992,-0.039464,-0.06202
29,0.00237306,8.96846,-0.010708,-0.66086,-0.045666,-0.067126
29,0.00189736,8.90646,-0.011445,-0.60943,-0.052378,-0.068133
29,0.00126691,8.85548,-0.011949,-0.55376,-0.059192,-0.065487
29,0.00050844,8.81358,-0.011899,-0.49267,-0.065741,-0.055601
29,-0.000342771,8.77894,-0.01139,-0.42565,-0.071301,-0.040497
29,-0.00125754,8.75027,-0.011404,-0.35251,-0.07535,-0.03492
29,-0.00223806,8.7265,-0.01256,-0.27365,-0.078842,-0.043616
29,-0.00327297,8.70661,-0.014023,-0.19071,-0.083204,-0.053982
29,-0.00436603,8.68996,-0.015648,-0.10659,-0.088602,-0.057957
29,-0.00573096,8.67662,-0.014598,-0.045188,-0.094398,-0.042441
29,-0.00720233,8.66755,-0.014555,0.0097697,-0.098642,-0.037203
29,-0.00847221,8.66413,-0.015103,0.056883,-0.10236,-0.037211
29,-0.0095359,8.66756,-0.015599,0.096517,-0.10608,-0.036554
29,-0.0102974,8.67907,-0.016082,0.12999,-0.10974,-0.03439
29,-0.0112959,8.70049,-0.016591,0.1587,-0.11318,-0.033472
29,-0.013425,8.7341,-0.017168,0.18361,-0.11652,-0.035701
29,-0.0168315,8.78168,-0.017845,0.20551,-0.12009,-0.039126
29,-0.0208737,8.84305,-0.01867,0.22519,-0.12401,-0.043898
30,0.00601128,11.0301,0.030536,-1.1927,0.23258,0.07264
30,0.00631547,10.8918,0.025169,-1.1807,0.23984,0.026158
30,0.0065408,10.7577,0.020453,-1.1644,0.24246,-0.017358
30,0.00754325,10.6304,0.016822,-1.1437,0.24072,-0.053883
30,0.00888585,10.5112,0.013883,-1.1188,0.23534,-0.085125
30,0.00998339,10.3998,0.011321,-1.0904,0.22682,-0.11353
30,0.010865,10.2948,0.009214,-1.0591,0.21547,-0.13657
30,0.0115681,10.1947,0.0074316,-1.0252,0.20181,-0.15471
30,0.0121497,10.0988,0.0059374,-0.98838,0.18634,-0.17257
30,0.0126045,10.0063,0.0047144,-0.94883,0.16909,-0.18988
30,0.0129413,9.91636,0.004058,-0.90777,0.1501,-0.19707
30,0.0131935,9.82857,0.0038704,-0.86767,0.13039,-0.18936
30,0.0131653,9.74331,0.0035178,-0.83098,0.11145,-0.17123
30,0.0129051,9.66194,0.0027127,-0.7992,0.094332,-0.14871
30,0.0126634,9.586,0.0015795,-0.77239,0.079461,-0.12645
30,0.0130032,9.51588,0.00054327,-0.74916,0.066816,-0.10643
30,0.0137976,9.45066,-0.00030737,-0.7281,0.056173,-0.091368
30,0.0141125,9.38886,-0.0010045,-0.70873,0.047036,-0.081021
30,0.0140704,9.32939,-0.0016931,-0.6915,0.038934,-0.07397
30,0.0140223,9.27161,-0.0024602,-0.67689,0.031537,-0.069115
30,0.0141273,9.21453,-0.0031672,-0.6648,0.024626,-0.065691
30,0.0140563,9.15646,-0.0038442,-0.65479,0.018056,-0.060074
30,0.0135763,9.09575,-0.0043911,-0.64682,0.012049,-0.052239
30,0.0129687,9.03197,-0.0048303,-0.64162,0.0068252,-0.0486
30,0.0120448,8.96647,-0.0052859,-0.63983,0.0019652,-0.048758
30,0.0110699,8.90151,-0.0064129,-0.64068,-0.0029106,-0.05385
30,0.0102503,8.83858,-0.0080692,-0.64183,-0.0082955,-0.064655
30,0.00955905,8.77728,-0.0091104,-0.64042,-0.014761,-0.074046
30,0.00876346,8.71584,-0.0096756,-0.63446,-0.022166,-0.079988
30,0.0076841,8.65252,-0.010235,-0.62298,-0.030164,-0.083148
30,0.00660692,8.58676,-0.01085,-0.60512,-0.038479,-0.085115
30,0.0055052,8.519,-0.0112,-0.57973,-0.046991,-0.084275
30,0.0043832,8.44968,-0.01118,-0.54595,-0.055418,-0.081602
30,0.0032444,8.37869,-0.011079,-0.50434,-0.063579,-0.080059
30,0.00209172,8.30633,-0.010685,-0.45726,-0.071584,-0.077606
30,0.000177317,8.23452,-0.010209,-0.40765,-0.079345,-0.073907
30,-0.00234091,8.16699,-0.010084,-0.35716,-0.086736,-0.070494
30,-0.00410827,8.10801,-0.010678,-0.30509,-0.093785,-0.070213
30,-0.00528081,8.06047,-0.011881,-0.24905,-0.10081,-0.074187
30,-0.00644824,8.02565,-0.013593,-0.18682,-0.10823,-0.083125
30,-0.00757197,8.00429,-0.013348,-0.14455,-0.11654,-0.080782
30,-0.00834365,7.99701,-0.013112,-0.098657,-0.12462,-0.080228
30,-0.00878462,8.00386,-0.012893,-0.049281,-0.13264,-0.080939
30,-0.0091889,8.02329,-0.0127,0.0039835,-0.14073,-0.079152
30,-0.00932593,8.05195,-0.012552,0.061381,-0.14865,-0.075633
30,-0.00934715,8.08622,-0.011934,0.12198,-0.15621,-0.068769
30,-0.00991751,8.12426,-0.010914,0.18342,-0.16309,-0.058858
30,-0.0117977,8.1671,-0.010325,0.24265,-0.16897,-0.051842
30,-0.0149983,8.21773,-0.010125,0.29715,-0.17416,-0.047279
30,-0.0195019,8.27888,-0.0095412,0.31456,-0.17889,-0.04254
31,0.0417996,13.6578,-0.026073,-0.054075,0.16147,-0.44916
31,0.0373831,13.6544,-0.031546,-0.055929,0.11656,-0.4418
31,0.0329398,13.6515,-0.03531,-0.056897,0.072379,-0.42392
31,0.028461,13.6491,-0.036904,-0.05675,0.029987,-0.39518
31,0.0239399,13.6472,-0.036552,-0.05624,-0.0095309,-0.35665
31,0.0194231,13.6458,-0.034759,-0.056509,-0.045196,-0.30828
31,0.0148968,13.6449,-0.031881,-0.058903,-0.076025,-0.25383
31,0.01056,13.6434,-0.028322,-0.064951,-0.10141,-0.20117
31,0.00616942,13.6398,-0.024424,-0.075831,-0.12153,-0.1542
31,0.00144478,13.6328,-0.020528,-0.09182,-0.13695,-0.11148
31,-0.00356937,13.6232,-0.016982,-0.11212,-0.14809,-0.070799
31,-0.00816494,13.6136,-0.013818,-0.13535,-0.15517,-0.031046
31,-0.0110454,13.6056,-0.010925,-0.1601,-0.15828,0.0070756
31,-0.0118489,13.599,-0.0081494,-0.18499,-0.15757,0.04487
31,-0.0108815,13.5919,-0.0054454,-0.20891,-0.15308,0.082494
31,-0.00863346,13.582,-0.0028135,-0.23109,-0.14483,0.11689
31,-0.00544433,13.5672,-0.00013607,-0.25068,-0.13314,0.14526
31,-0.00180576,13.5457,0.0023684,-0.26645,-0.11862,0.16408
31,0.00184926,13.5161,0.0048484,-0.27694,-0.10221,0.17461
31,0.00517568,13.4783,0.0075581,-0.28155,-0.08475,0.18013
31,0.0078354,13.4335,0.010458,-0.28164,-0.066737,0.18103
31,0.00974616,13.3837,0.013087,-0.27973,-0.048634,0.1773
31,0.01109,13.3313,0.014591,-0.27756,-0.030904,0.16727
31,0.0121622,13.2791,0.01494,-0.27485,-0.014177,0.15327
31,0.0130492,13.2293,0.014399,-0.26966,0.0011502,0.13681
31,0.0137961,13.1836,0.013228,-0.25983,0.014831,0.11758
31,0.0146246,13.1435,0.011529,-0.24366,0.026589,0.09687
31,0.0152969,13.1105,0.0095773,-0.21994,0.036276,0.075744
31,0.0158662,13.0859,0.0075874,-0.18812,0.043851,0.054948
31,0.0165609,13.0697,0.0056253,-0.14838,0.049345,0.034619
31,0.0173462,13.06,0.004341,-0.11349,0.052807,0.020382
31,0.018009,13.0541,0.0035359,-0.072494,0.054845,0.011921
31,0.0181362,13.0505,0.0031194,-0.027373,0.056038,0.0045802
31,0.0180308,13.0493,0.0028241,0.019537,0.056496,-0.0069698
31,0.0179173,13.0526,0.0025948,0.066058,0.055799,-0.021063
31,0.0178234,13.0624,0.0023859,0.11023,0.053692,-0.033879
31,0.0176141,13.0799,0.0019383,0.15014,0.050304,-0.044798
31,0.0173488,13.1058,0.001385,0.18426,0.045825,-0.051888
31,0.017024,13.1398,0.00086242,0.21177,0.040636,-0.054846
31,0.0164263,13.1816,0.00051506,0.21989,0.035151,-0.053129
31,0.0165173,13.2065,0.00012885,0.23657,0.029838,-0.037417
31,0.016818,13.2387,-0.00023223,0.25295,0.026097,-0.034927
31,0.0173288,13.2766,-0.00032069,0.26999,0.022604,-0.03022
31,0.0178104,13.3182,-0.00027486,0.2876,0.019582,-0.025428
31,0.0182388,13.3615,-0.0002175,0.30457,0.017039,-0.021328
31,0.018568,13.4041,-0.00016596,0.31933,0.014906,-0.017072
31,0.0185012,13.4438,-1.77E-05,0.33039,0.013199,-0.012689
31,0.0180669,13.4791,0.00020187,0.33638,0.01193,-0.008124
31,0.017591,13.5094,0.00051546,0.33599,0.011118,-0.0030876
31,0.017591,13.5094,0.00051546,0.33599,0.010809,-0.0030876
32,-0.0817376,12.92,0.0065884,-0.12318,-0.27586,0.30789
32,-0.0839268,12.8944,0.013255,-0.17375,-0.24507,0.3606
32,-0.0820262,12.8622,0.019021,-0.22427,-0.20901,0.41003
32,-0.0758209,12.8254,0.023902,-0.2746,-0.168,0.45528
32,-0.0660545,12.7847,0.028401,-0.32352,-0.12248,0.4886
32,-0.0541448,12.7399,0.032696,-0.37021,-0.073616,0.49982
32,-0.0419495,12.691,0.036209,-0.41456,-0.023634,0.48281
32,-0.0317291,12.6386,0.03905,-0.45604,0.024646,0.44308
32,-0.0237084,12.5845,0.041827,-0.49364,0.068954,0.39369
32,-0.0160332,12.5301,0.044967,-0.52639,0.10832,0.34468
32,-0.00920998,12.4746,0.047815,-0.55406,0.14279,0.29904
32,-0.00418391,12.4163,0.049204,-0.57754,0.1727,0.25646
32,-0.000249729,12.3543,0.04849,-0.59803,0.19834,0.2146
32,0.00275483,12.2896,0.045577,-0.61646,0.2198,0.16911
32,0.005451,12.2242,0.040844,-0.63316,0.23671,0.1191
32,0.0078789,12.1588,0.035006,-0.64804,0.24862,0.067526
32,0.00963736,12.0923,0.028999,-0.66113,0.25537,0.017891
32,0.0110658,12.0242,0.023957,-0.67275,0.25716,-0.025285
32,0.0122211,11.9545,0.019714,-0.68314,0.25464,-0.06329
32,0.0131506,11.8836,0.015249,-0.69162,0.24831,-0.10004
32,0.0138932,11.8119,0.011411,-0.69639,0.2383,-0.13287
32,0.0144812,11.7393,0.0088279,-0.69581,0.22501,-0.16005
32,0.0149545,11.6662,0.0067766,-0.68989,0.20901,-0.18475
32,0.0153328,11.5925,0.005073,-0.68026,0.19053,-0.20749
32,0.0156327,11.5184,0.0033149,-0.66833,0.16979,-0.2244
32,0.0158676,11.4438,0.0015183,-0.6537,0.14735,-0.23085
32,0.0160487,11.3687,1.88E-05,-0.63477,0.12426,-0.22371
32,0.0161854,11.2931,-0.0013598,-0.61032,0.10189,-0.20596
32,0.0157194,11.2183,-0.0026254,-0.58001,0.081295,-0.18337
32,0.0144652,11.1468,-0.0037843,-0.54385,0.062958,-0.16033
32,0.0136119,11.0818,-0.0043717,-0.51231,0.046924,-0.13539
32,0.0134719,11.0247,-0.0049129,-0.47947,0.033385,-0.11468
32,0.0133035,10.9745,-0.0054395,-0.44548,0.021917,-0.10045
32,0.0129009,10.9291,-0.0059671,-0.41048,0.011873,-0.090629
32,0.0120809,10.8876,-0.0065113,-0.37456,0.0028096,-0.082931
32,0.0109155,10.8514,-0.0070888,-0.33773,-0.0054835,-0.07738
32,0.00967503,10.8228,-0.0077186,-0.29987,-0.013221,-0.073651
32,0.00834609,10.8036,-0.0084237,-0.26105,-0.020587,-0.071559
32,0.0069703,10.7945,-0.008938,-0.22208,-0.027742,-0.069521
32,0.00558206,10.7959,-0.0083109,-0.18638,-0.034695,-0.062656
32,0.00514968,10.7872,-0.0082992,-0.16197,-0.04096,-0.032589
32,0.00465542,10.7804,-0.0086826,-0.13922,-0.044219,-0.032447
32,0.00407539,10.7752,-0.0090942,-0.11786,-0.047464,-0.032834
32,0.00339859,10.7715,-0.009411,-0.09686,-0.050747,-0.03305
32,0.00261013,10.7692,-0.0094917,-0.075658,-0.054052,-0.033018
32,0.00169006,10.7684,-0.0093373,-0.055183,-0.057354,-0.031947
32,0.000611521,10.769,-0.0091013,-0.037435,-0.060549,-0.030506
32,-0.000661928,10.771,-0.0087523,-0.024563,-0.063599,-0.028541
32,-0.00215666,10.7741,-0.0082972,-0.018562,-0.066453,-0.025038
32,-0.00215666,10.7741,-0.0082972,-0.018562,-0.068957,-0.025038
33,0.010175,6.09,-0.0036463,0.051546,0.20179,0.069959
33,0.010049,6.091,-0.003622,0.060523,0.20879,0.12912
33,0.0099455,6.0916,-0.0035755,0.073464,0.2217,0.14653
33,0.0098466,6.0918,-0.0035107,0.090494,0.23635,0.12485
33,0.0095409,6.0927,-0.0035426,0.11127,0.24884,0.088009
33,0.0093013,6.0958,-0.0036546,0.13517,0.25764,0.058718
33,0.0092873,6.1023,-0.0038262,0.16152,0.26351,0.039699
33,0.0091572,6.1122,-0.0040604,0.18977,0.26748,0.024839
33,0.0088917,6.125,-0.0043527,0.21962,0.26997,0.012976
33,0.008264,6.1405,-0.004792,0.25114,0.27126,-0.0016145
33,0.0073631,6.1597,-0.0053529,0.28482,0.2711,-0.021854
33,0.0064861,6.1844,-0.0059156,0.32143,0.26892,-0.04349
33,0.0058133,6.2159,-0.0064732,0.36184,0.26457,-0.067152
33,0.0053093,6.2546,-0.0070069,0.4065,0.25785,-0.094325
33,0.0047213,6.3,-0.0072115,0.45491,0.24842,-0.1207
33,0.0040637,6.351,-0.0073808,0.50552,0.23635,-0.14894
33,0.0033618,6.4063,-0.0077972,0.55675,0.22146,-0.18081
33,0.00261,6.465,-0.0081154,0.60793,0.20338,-0.2154
33,0.0018038,6.5265,-0.0082668,0.6588,0.18184,-0.24941
33,0.00074204,6.591,-0.0080695,0.70859,0.1569,-0.27987
33,-0.00053122,6.6596,-0.0082814,0.75633,0.12891,-0.30984
33,-0.001782,6.7338,-0.0093583,0.80174,0.097925,-0.33034
33,-0.003001,6.8152,-0.01092,0.84515,0.064891,-0.32933
33,-0.0041673,6.9048,-0.012529,0.88739,0.031958,-0.30568
33,-0.0048822,7.0025,-0.013629,0.93013,0.00139,-0.26861
33,-0.0054604,7.1068,-0.014447,0.97486,-0.025471,-0.23358
33,-0.0063072,7.2158,-0.015268,1.0219,-0.048829,-0.20615
33,-0.0070736,7.3281,-0.016106,1.0708,-0.069444,-0.18306
33,-0.0076418,7.4426,-0.016943,1.1212,-0.08775,-0.16353
33,-0.007875,7.5577,-0.017537,1.1722,-0.1041,-0.1452
33,-0.0091998,7.6724,-0.017911,1.222,-0.11862,-0.12672
33,-0.012231,7.7879,-0.017834,1.225,-0.13129,-0.11203
33,-0.016028,7.9062,-0.017849,1.225,-0.1425,-0.10157
33,-0.019748,8.0294,-0.017994,1.221,-0.15265,-0.094069
33,-0.022536,8.1603,-0.018605,1.2125,-0.16206,-0.090814
33,-0.02483,8.3007,-0.019537,1.2001,-0.17114,-0.089843
33,-0.027174,8.45,-0.020467,1.1853,-0.18013,-0.08904
33,-0.029601,8.6066,-0.021609,1.1697,-0.18903,-0.087835
33,-0.032083,8.769,-0.023147,1.1555,-0.19781,-0.088734
33,-0.034333,8.9354,-0.025153,1.1457,-0.20669,-0.095347
33,-0.036352,9.1036,-0.02449,1.0883,-0.21622,-0.091048
33,-0.037449,9.1839,-0.024184,1.0848,-0.22533,-0.047702
33,-0.0387,9.2653,-0.023418,1.0793,-0.2301,-0.040262
33,-0.040156,9.3468,-0.022607,1.0703,-0.23412,-0.032921
33,-0.042093,9.4275,-0.022278,1.0554,-0.23742,-0.029347
33,-0.044534,9.5071,-0.022234,1.0322,-0.24035,-0.028237
33,-0.047242,9.5865,-0.022147,0.99924,-0.24317,-0.027339
33,-0.050291,9.6675,-0.021984,0.95566,-0.24591,-0.026568
33,-0.053937,9.7535,-0.021748,0.90002,-0.24856,-0.026026
33,-0.05818,9.849,-0.021679,0.83054,-0.25117,-0.027264
34,-0.0829749,13.406,0.010484,-0.36924,0.072671,0.0084978
34,-0.0831467,13.3494,0.011246,-0.3827,0.073521,0.0079051
34,-0.0833626,13.294,0.010688,-0.39656,0.074311,0.0033142
34,-0.0833781,13.2424,0.0085252,-0.41031,0.074643,-0.0073644
34,-0.0825672,13.1968,0.0058053,-0.42306,0.073906,-0.018935
34,-0.0808068,13.1581,0.0037358,-0.43479,0.072013,-0.026755
34,-0.0788248,13.1257,0.0021398,-0.44661,0.069337,-0.032058
34,-0.0772275,13.0984,0.0013557,-0.4593,0.066132,-0.03417
34,-0.0758675,13.0751,0.0014534,-0.47198,0.062715,-0.032783
34,-0.0742543,13.055,0.0023854,-0.48255,0.059436,-0.027102
34,-0.0724909,13.0367,0.0039997,-0.48898,0.056726,-0.028618
34,-0.0706045,12.985,0.0057238,-0.48683,0.053864,-0.026613
34,-0.0701495,12.9301,0.0074963,-0.48083,0.051203,-0.022401
34,-0.0718922,12.8725,0.0094733,-0.47327,0.048963,-0.011977
34,-0.0748474,12.8137,0.010941,-0.46666,0.047765,-0.0026044
34,-0.0773712,12.7538,0.01186,-0.46304,0.047505,0.0038207
34,-0.0795512,12.6914,0.01266,-0.46405,0.047887,0.0091457
34,-0.0806703,12.6252,0.013468,-0.47064,0.048801,0.012891
34,-0.0803588,12.5564,0.013755,-0.48348,0.050091,0.011753
34,-0.0784427,12.4891,0.01319,-0.50304,0.051266,0.003509
34,-0.0749755,12.428,0.012501,-0.52838,0.051617,-0.00709
34,-0.0716991,12.3757,0.012303,-0.54034,0.050908,-0.013555
34,-0.06837,12.3324,0.013725,-0.5528,0.049552,-0.01144
34,-0.0644314,12.2959,0.017231,-0.56568,0.048408,0.003756
34,-0.0606861,12.2635,0.021888,-0.57922,0.048784,0.026583
34,-0.0570876,12.232,0.026716,-0.59205,0.051442,0.049088
34,-0.0535052,12.1976,0.031775,-0.60093,0.056351,0.070651
34,-0.0502915,12.1571,0.035947,-0.60322,0.063416,0.087846
34,-0.0483568,12.1082,0.038774,-0.59935,0.0722,0.09842
34,-0.047875,12.0489,0.04023,-0.59261,0.082042,0.10029
34,-0.0474896,11.98,0.040389,-0.58723,0.092071,0.094951
34,-0.0459994,11.9043,0.040856,-0.58625,0.10157,0.091622
34,-0.0427001,11.8245,0.041406,-0.59055,0.11073,0.088017
34,-0.0374305,11.7412,0.041388,-0.59957,0.11953,0.081306
34,-0.0310705,11.6552,0.041353,-0.61141,0.12766,0.075849
34,-0.0239401,11.5697,0.041133,-0.62086,0.13525,0.070324
34,-0.0160012,11.4895,0.040412,-0.61951,0.14228,0.061606
34,-0.00877544,11.4187,0.04,-0.59905,0.14844,0.053929
34,-0.00281096,11.3577,0.041376,-0.55282,0.15383,0.056141
34,0.00201799,11.3039,0.045311,-0.476,0.15945,0.075657
34,0.00580226,11.2535,0.050179,-0.37243,0.16701,0.10534
34,0.0100121,11.2032,0.054003,-0.25329,0.17755,0.13062
34,0.0144425,11.1513,0.055876,-0.12845,0.19061,0.14199
34,0.0183446,11.0968,0.055767,-0.0047616,0.20481,0.13529
34,0.0220201,11.0407,0.054696,0.11297,0.21834,0.11706
34,0.0251793,10.9903,0.052678,0.22185,0.23004,0.09545
34,0.0273189,10.9586,0.049575,0.3202,0.23959,0.072223
34,0.0297076,10.959,0.046263,0.40645,0.24681,0.049373
34,0.034395,11.0025,0.043076,0.48066,0.25175,0.028435
34,0.0427478,11.0969,0.039973,0.54455,0.25459,0.010004
34,0.0528694,11.2351,0.037043,0.60067,0.25559,-0.0056667
34,0.062006,11.3977,0.033613,0.65162,0.25502,-0.022695
34,0.0690512,11.5676,0.029821,0.69923,0.25275,-0.040929
34,0.074103,11.7317,0.026091,0.74484,0.24866,-0.059346
34,0.0783216,11.8812,0.022309,0.78832,0.24273,-0.078262
34,0.0814167,12.0134,0.018653,0.82366,0.2349,-0.096967
34,0.083148,12.1299,0.015786,0.83968,0.2252,-0.11182
34,0.0837511,12.2316,0.012862,0.82487,0.21402,-0.12655
34,0.0833418,12.319,0.0082647,0.76982,0.20137,-0.14702
34,0.0819634,12.393,0.00050627,0.66788,0.18666,-0.17867
34,0.0798887,12.4549,-0.0091499,0.52633,0.1688,-0.21667
34,0.0772378,12.5065,-0.018125,0.36397,0.14713,-0.24497
34,0.0740839,12.5497,-0.025228,0.1973,0.12263,-0.25576
34,0.0705272,12.5864,-0.030518,0.039405,0.097057,-0.25053
34,0.0666371,12.6174,-0.035144,-0.10088,0.072004,-0.23745
34,0.0624845,12.6376,-0.038919,-0.22128,0.048259,-0.22223
34,0.0588912,12.638,-0.04166,-0.32453,0.026036,-0.2071
34,0.0554316,12.6088,-0.043506,-0.4128,0.0053255,-0.19283
34,0.0509244,12.5422,-0.044586,-0.48756,-0.013958,-0.18017
34,0.0437604,12.4327,-0.044947,-0.55024,-0.031974,-0.1658
34,0.0345697,12.2878,-0.044778,-0.6024,-0.048555,-0.14838
34,0.0257555,12.1256,-0.044177,-0.64578,-0.063393,-0.12886
34,0.0185955,11.9622,-0.043193,-0.68204,-0.076279,-0.10747
34,0.013067,11.8105,-0.041912,-0.71265,-0.087025,-0.084667
34,0.00803283,11.6794,-0.04053,-0.73805,-0.095492,-0.061996
34,0.00357862,11.5708,-0.039149,-0.75532,-0.10169,-0.039319
34,-0.000172034,11.4809,-0.037849,-0.75893,-0.10562,-0.016373
34,-0.00326168,11.406,-0.036142,-0.74346,-0.10726,0.0097822
34,-0.00583083,11.3439,-0.033598,-0.70477,-0.10628,0.037674
34,-0.00792988,11.2925,-0.029716,-0.64021,-0.10252,0.06181
34,-0.00966637,11.2501,-0.0252,-0.56842,-0.096334,0.079771
34,-0.0111161,11.2149,-0.020861,-0.48746,-0.088357,0.081241
34,-0.0123022,11.1856,-0.017333,-0.4053,-0.080233,0.066631
34,-0.0132967,11.1611,-0.014604,-0.32847,-0.07357,0.043029
34,-0.014422,11.1412,-0.012108,-0.26141,-0.069267,0.016442
34,-0.0158137,11.127,-0.0098884,-0.20499,-0.067623,-0.0087235
34,-0.016807,11.1201,-0.008006,-0.1572,-0.068495,-0.028652
34,-0.0168523,11.1219,-0.0064392,-0.11622,-0.07136,-0.040136
34,-0.016271,11.1326,-0.0051162,-0.080686,-0.075374,-0.041074
34,-0.0156718,11.1522,-0.0040667,-0.054994,-0.079481,-0.041274
34,-0.0158302,11.1509,-0.0033668,-0.035543,-0.083609,0.0094451
34,-0.0159669,11.1507,-0.0027485,-0.017997,-0.082664,0.0068509
34,-0.0160697,11.1516,-0.0022124,-0.001834,-0.081979,0.0026142
34,-0.0161414,11.1535,-0.0017292,0.013362,-0.081718,-0.0033495
34,-0.0161839,11.1566,-0.0010942,0.027517,-0.082053,-0.010266
34,-0.0161982,11.1609,-0.00017829,0.03967,-0.083079,-0.017897
34,-0.016184,11.1664,0.0005721,0.048021,-0.084869,-0.029091
34,-0.01614,11.1736,0.00065745,0.050554,-0.087778,-0.048406
34,-0.0160633,11.1825,0.00018885,0.045352,-0.092619,-0.075431
34,-0.0160633,11.1825,0.00018885,0.045352,-0.10016,-0.075431
35,0.0205782,11.9582,0.016548,0.4454,0.011979,0.25185
35,0.0200905,11.999,0.0175,0.4226,0.037164,0.22938
35,0.0198318,12.0322,0.016985,0.40097,0.060102,0.19861
35,0.0196178,12.0594,0.014729,0.38103,0.079964,0.16114
35,0.0192302,12.0825,0.011375,0.36343,0.096078,0.12151
35,0.0189358,12.104,0.0079561,0.34877,0.10823,0.084177
35,0.0189029,12.1256,0.0047853,0.33725,0.11665,0.049974
35,0.0188625,12.1472,0.0021095,0.32912,0.12164,0.019844
35,0.0188554,12.168,0.00020516,0.32527,0.12363,-0.00512
35,0.0186389,12.188,-0.00077135,0.32678,0.12312,-0.024471
35,0.0184599,12.2087,-0.00087503,0.33413,0.12067,-0.03875
35,0.0185486,12.2314,-0.00081602,0.34695,0.11679,-0.051571
35,0.0186352,12.2568,-0.00099754,0.36449,0.11164,-0.065117
35,0.0184831,12.2852,-0.0013122,0.38583,0.10513,-0.078898
35,0.0181467,12.3175,-0.0015199,0.40939,0.097236,-0.090908
35,0.0181185,12.3551,-0.001876,0.43304,0.088145,-0.10052
35,0.0183452,12.3987,-0.0025457,0.4554,0.078093,-0.10691
35,0.018559,12.4482,-0.0032576,0.47677,0.067403,-0.11013
35,0.0187491,12.5031,-0.0040375,0.49815,0.05639,-0.11227
35,0.0188932,12.5628,-0.0046299,0.51958,0.045163,-0.11075
35,0.0188282,12.6265,-0.005278,0.53976,0.034088,-0.10485
35,0.0184585,12.6929,-0.006209,0.55735,0.023603,-0.097434
35,0.0178367,12.7612,-0.0071503,0.57171,0.01386,-0.090065
35,0.0169934,12.831,-0.0079488,0.58271,0.0048531,-0.083363
35,0.0161904,12.9013,-0.0090568,0.5909,-0.0034832,-0.079806
35,0.0151838,12.9701,-0.010704,0.59684,-0.011464,-0.079776
35,0.0138115,13.0364,-0.012067,0.60145,-0.019441,-0.079021
35,0.0123472,13.1008,-0.012483,0.60629,-0.027344,-0.074562
35,0.0107805,13.1643,-0.011465,0.61299,-0.0348,-0.064369
35,0.00937906,13.2271,-0.0084584,0.62241,-0.041237,-0.046192
35,0.00790381,13.2882,-0.0088341,0.6002,-0.045856,-0.044395
35,0.00613058,13.3461,-0.0089312,0.57604,-0.050295,-0.041771
35,0.00433459,13.4002,-0.008785,0.55088,-0.054473,-0.038472
35,0.00258559,13.4506,-0.0084083,0.52521,-0.05832,-0.034487
35,3.31E-05,13.4992,-0.0079426,0.49972,-0.061768,-0.030348
35,-0.00328943,13.5488,-0.007264,0.47554,-0.064803,-0.025456
35,-0.00578797,13.6016,-0.0062846,0.4535,-0.067349,-0.019339
35,-0.00640713,13.6608,-0.0051178,0.43372,-0.069283,-0.01452
35,-0.00418168,13.7291,-0.0037375,0.41605,-0.070735,-0.012182
35,0.00197647,13.8076,-0.0030368,0.38462,-0.071953,-0.0086205
35,0.00116,13.8268,-0.0024201,0.37273,-0.072815,-0.011717
35,0.000596142,13.8449,-0.0015695,0.36125,-0.073987,-0.0083947
35,0.000266667,13.863,-0.00060532,0.35067,-0.074826,-0.0045131
35,0.000176791,13.8815,0.00044998,0.34111,-0.075277,-0.00010652
35,0.000305151,13.9007,0.0021816,0.33142,-0.075288,0.0073822
35,0.000655907,13.9212,0.0047107,0.31973,-0.07455,0.018318
35,0.00124242,13.9434,0.006995,0.30364,-0.072718,0.028043
35,0.00211156,13.9682,0.0080939,0.27964,-0.069914,0.032491
35,0.00330555,13.9964,0.0068066,0.24298,-0.066665,0.02634
35,0.00330555,13.9964,0.0068066,0.24298,-0.064031,0.02634
36,-0.0184328,12.774,-0.021364,0.31135,-0.03866,-0.26663
36,-0.0235409,12.8204,-0.011093,0.29575,-0.065323,-0.20039
36,-0.0260952,12.8554,-0.0020039,0.27276,-0.085363,-0.13992
36,-0.0276686,12.878,0.0065289,0.24356,-0.099355,-0.08849
36,-0.0287991,12.8889,0.014588,0.20942,-0.1082,-0.038436
36,-0.0296291,12.8919,0.022216,0.17086,-0.11205,0.01263
36,-0.028473,12.8918,0.029468,0.12836,-0.11078,0.060243
36,-0.0221071,12.8925,0.035704,0.08349,-0.10476,0.098926
36,-0.00978605,12.8948,0.040724,0.039428,-0.094868,0.13183
36,0.00630337,12.8966,0.045437,0.00010818,-0.081685,0.16845
36,0.0224698,12.8958,0.050277,-0.030532,-0.06484,0.21099
36,0.0357386,12.89,0.053846,-0.049601,-0.043741,0.24815
36,0.0461232,12.8784,0.055187,-0.056262,-0.018926,0.27044
36,0.054714,12.8618,0.055164,-0.051348,0.008118,0.28332
36,0.0618079,12.8415,0.054244,-0.036839,0.03645,0.28965
36,0.0676501,12.8178,0.052811,-0.015208,0.065415,0.28915
36,0.0724437,12.7911,0.049849,0.010722,0.09433,0.27689
36,0.075738,12.7632,0.042647,0.038182,0.12202,0.24246
36,0.0777,12.7376,0.030582,0.065722,0.14626,0.19004
36,0.0795863,12.7193,0.015566,0.093276,0.16527,0.12735
36,0.0821207,12.713,0.00053155,0.12128,0.178,0.062644
36,0.0841516,12.7212,-0.011696,0.15059,0.18427,0.0084862
36,0.0842786,12.7429,-0.020843,0.18164,0.18512,-0.029335
36,0.0826595,12.7753,-0.027917,0.21396,0.18218,-0.055526
36,0.0796879,12.8153,-0.033269,0.24705,0.17663,-0.077418
36,0.0759924,12.8615,-0.037315,0.28121,0.16889,-0.097514
36,0.0712242,12.9132,-0.040281,0.31798,0.15914,-0.11552
36,0.0631862,12.9689,-0.041516,0.3585,0.14759,-0.12552
36,0.0513772,13.0262,-0.040913,0.40232,0.13503,-0.12501
36,0.0374356,13.0832,-0.039019,0.4476,0.12253,-0.11652
36,0.0235329,13.1384,-0.040397,0.46553,0.11088,-0.11999
36,0.0123476,13.1912,-0.041939,0.47407,0.098881,-0.12403
36,0.00443673,13.2417,-0.042488,0.47369,0.086478,-0.12405
36,-0.00112054,13.2898,-0.041986,0.46659,0.074072,-0.12187
36,-0.00473078,13.3356,-0.040691,0.45505,0.061885,-0.11864
36,-0.00698036,13.3802,-0.038921,0.44006,0.050021,-0.11416
36,-0.00811747,13.427,-0.036492,0.42214,0.038605,-0.10846
36,-0.00729448,13.4802,-0.03231,0.40229,0.027759,-0.094798
36,-0.00412604,13.5423,-0.026114,0.38185,0.018279,-0.072703
36,0.00154867,13.6145,-0.019144,0.35337,0.011009,-0.046381
36,0.00132762,13.644,-0.012834,0.34292,0.0063709,-0.025124
36,0.000274331,13.6693,-0.007333,0.33262,0.0038585,-0.0043124
36,-0.000696746,13.6903,-0.0031109,0.32251,0.0034272,0.010856
36,-0.00131189,13.7084,0.00016796,0.31259,0.0045128,0.021038
36,-0.00169315,13.7253,0.002586,0.30287,0.0066166,0.0275
36,-0.00184887,13.7416,0.0043775,0.29266,0.0093666,0.032305
36,-0.00175884,13.7575,0.005589,0.27914,0.012597,0.037421
36,-0.00143402,13.7734,0.0053689,0.25812,0.016339,0.038288
36,-0.000851808,13.7899,0.0029766,0.22513,0.020168,0.029537
36,-0.000851808,13.7899,0.0029766,0.22513,0.023122,0.029537
37,0.0039841,4.836,0.002221,-0.55744,0.16064,-0.22901
37,0.0044936,4.7901,0.0017584,-0.50378,0.13774,-0.19864
37,0.0049152,4.7524,0.0013954,-0.4531,0.11787,-0.16787
37,0.0052639,4.7213,0.00083193,-0.40436,0.10109,-0.14426
37,0.0055656,4.6955,0.00013543,-0.35586,0.086662,-0.128
37,0.0058151,4.6742,-0.00014462,-0.3061,0.073862,-0.11367
37,0.0060084,4.6565,0.00016334,-0.25476,0.062494,-0.099451
37,0.0061683,4.6419,0.00084587,-0.20289,0.052549,-0.082848
37,0.0063138,4.6298,0.0013118,-0.15184,0.044264,-0.065966
37,0.0064341,4.6199,0.0012958,-0.10248,0.037668,-0.053799
37,0.0065205,4.6116,0.0011378,-0.055087,0.032288,-0.045306
37,0.006592,4.6045,0.0010136,-0.0093504,0.027757,-0.038075
37,0.0066642,4.5983,0.00091754,0.035061,0.02395,-0.03035
37,0.0061844,4.5939,0.0008446,0.078362,0.020915,-0.018267
37,0.0053004,4.5933,0.00078427,0.12063,0.019088,-0.0043747
37,0.0051351,4.5985,0.00074752,0.16201,0.018651,0.0031979
37,0.0055117,4.6106,0.00046704,0.20315,0.01897,-0.0020727
37,0.0058232,4.6295,-0.00017301,0.24538,0.018763,-0.017478
37,0.0058835,4.6549,-0.00069593,0.29019,0.017015,-0.030155
37,0.0059597,4.6868,-0.0006876,0.33877,0.014,-0.030923
37,0.0062596,4.7258,-0.00037798,0.39185,0.010908,-0.025407
37,0.0065209,4.7714,-0.00010868,0.44935,0.0083668,-0.021056
37,0.0067503,4.8225,0.00012726,0.51048,0.0062612,-0.017392
37,0.0069531,4.878,0.00088183,0.57352,0.004522,-0.0081543
37,0.0071341,4.9367,0.0020062,0.63586,0.0037066,0.0048307
37,0.0073102,4.9982,0.0023967,0.69483,0.0041896,0.0093397
37,0.0069425,5.0628,0.0022328,0.74893,0.0051236,0.0075457
37,0.0058223,5.1327,0.0021104,0.79801,0.0058782,0.009076
37,0.0049219,5.2102,0.0022263,0.84206,0.0067858,0.016911
37,0.0050589,5.2974,0.0023222,0.88051,0.0084769,0.023145
37,0.0057645,5.3953,0.0021843,0.91282,0.010791,0.021465
37,0.0063746,5.5032,0.0018004,0.93967,0.012938,0.014883
37,0.0069187,5.6193,0.0016517,0.94143,0.014426,0.011285
37,0.007948,5.741,0.0015233,0.94174,0.015555,-0.0022232
37,0.0093129,5.865,0.0014123,0.94186,0.015332,-0.021312
37,0.0099286,5.9881,0.0013095,0.94269,0.013201,-0.029911
37,0.0099774,6.1085,0.0018438,0.94408,0.01021,-0.020242
37,0.010044,6.2256,0.0033367,0.94397,0.0081857,0.00094946
37,0.010336,6.339,0.0046894,0.93952,0.0082807,0.019485
37,0.010604,6.4479,0.0048162,0.92792,0.010229,0.025841
37,0.010628,6.5514,0.0041834,0.90718,0.012813,0.025286
37,0.010122,6.6507,0.0038783,0.85324,0.015342,0.024575
37,0.010054,6.7054,0.0037961,0.83704,0.017799,0.011914
37,0.0099998,6.7615,0.0034351,0.81593,0.018991,0.009667
37,0.0099587,6.8205,0.0028343,0.79098,0.019958,0.0050312
37,0.0099292,6.8836,0.0026266,0.76345,0.020461,0.0040418
37,0.01063,6.951,0.0027693,0.7341,0.020865,0.0063525
37,0.012496,7.0206,0.0029195,0.70292,0.0215,0.0046497
37,0.014301,7.0892,0.0029194,0.66973,0.021965,-0.0051759
37,0.014691,7.1532,0.0029394,0.63481,0.021447,-0.015188
38,-0.0292399,9.98494,0.047291,-0.287,0.25783,-0.077216
38,-0.0245447,9.89906,0.051573,-0.18268,0.25011,-0.068467
38,-0.0189231,9.81843,0.054892,-0.09139,0.24326,-0.06202
38,-0.0134302,9.75395,0.058033,-0.011263,0.23706,-0.053745
38,-0.00797792,9.71787,0.061401,0.059842,0.23168,-0.041115
38,-0.00126935,9.72195,0.064747,0.1238,0.22757,-0.024025
38,0.00917669,9.77553,0.067463,0.18253,0.22517,-0.0052551
38,0.023399,9.87395,0.068945,0.23804,0.22464,0.011088
38,0.0382052,9.99981,0.068685,0.29203,0.22575,0.018691
38,0.0509277,10.1354,0.06637,0.34549,0.22762,0.017693
38,0.0611895,10.2645,0.06231,0.39906,0.22939,0.013716
38,0.0703237,10.3757,0.056864,0.4521,0.23076,0.0045427
38,0.0783539,10.4659,0.05028,0.49855,0.23122,-0.017149
38,0.0852736,10.5382,0.043603,0.52766,0.2295,-0.046032
38,0.0912876,10.5961,0.036663,0.52777,0.2249,-0.075724
38,0.0964865,10.6423,0.02835,0.48837,0.21732,-0.10665
38,0.100393,10.6795,0.016786,0.40161,0.20666,-0.14684
38,0.102518,10.7103,0.0024164,0.27357,0.19198,-0.19781
38,0.102448,10.7369,-0.011821,0.12242,0.17219,-0.24638
38,0.0999408,10.7608,-0.023836,-0.034399,0.14756,-0.28091
38,0.0953794,10.783,-0.033447,-0.18169,0.11947,-0.30077
38,0.0891841,10.8033,-0.041957,-0.30894,0.089389,-0.31367
38,0.0816372,10.8155,-0.049372,-0.41341,0.058022,-0.31994
38,0.0737749,10.8093,-0.055684,-0.4986,0.026028,-0.3194
38,0.065349,10.7734,-0.06107,-0.56819,-0.0059119,-0.31352
38,0.0554302,10.6987,-0.065645,-0.62499,-0.037264,-0.30714
38,0.0427497,10.5788,-0.069225,-0.67152,-0.067978,-0.30029
38,0.0282319,10.4211,-0.071634,-0.71003,-0.098007,-0.28911
38,0.0145633,10.2446,-0.072712,-0.74245,-0.12692,-0.27184
38,0.00325566,10.0666,-0.072374,-0.77021,-0.1541,-0.24884
38,-0.00570396,9.90109,-0.07085,-0.7944,-0.17899,-0.22258
38,-0.0135898,9.75783,-0.068378,-0.81532,-0.20124,-0.19207
38,-0.02039,9.63906,-0.065123,-0.8304,-0.22045,-0.15485
38,-0.0260945,9.54102,-0.061626,-0.83473,-0.23594,-0.11528
38,-0.0308532,9.45974,-0.057767,-0.82318,-0.24746,-0.077256
38,-0.0348031,9.39233,-0.053238,-0.79117,-0.25519,-0.043491
38,-0.0380576,9.33646,-0.047668,-0.7343,-0.25954,-0.014991
38,-0.04075,9.29023,-0.041251,-0.6546,-0.26104,0.0083031
38,-0.0429773,9.25201,-0.034962,-0.56024,-0.26021,0.025228
38,-0.0448067,9.2204,-0.029127,-0.45862,-0.25768,0.037194
38,-0.0463201,9.19425,-0.02378,-0.35609,-0.25396,0.044268
38,-0.0475721,9.17261,-0.018791,-0.25782,-0.24954,0.045997
