veh_id,target_vel_x,target_vel_y,target_acc_x,target_acc_y,ref_heading,yaw_rate
1,-0.0961871,15.2018,-0.040399,0.18217,-0.0096803,-0.098896
1,-0.0967263,15.2047,-0.044342,0.18786,-0.01957,-0.11186
1,-0.0982284,15.2105,-0.048068,0.1888,-0.030756,-0.12273
1,-0.100283,15.2214,-0.051536,0.18683,-0.04303,-0.13193
1,-0.103267,15.2381,-0.054751,0.18334,-0.056222,-0.13977
1,-0.10799,15.2603,-0.057732,0.17889,-0.0702,-0.1451
1,-0.114077,15.2864,-0.060131,0.173,-0.084709,-0.14671
1,-0.120163,15.3144,-0.062285,0.16472,-0.09938,-0.14864
1,-0.125504,15.3417,-0.063615,0.1537,-0.11424,-0.15015
1,-0.130768,15.3655,-0.06193,0.14044,-0.12926,-0.14209
1,-0.136586,15.384,-0.05579,0.12553,-0.14347,-0.22119
1,-0.144964,15.4085,-0.048672,0.11285,-0.16559,-0.19529
1,-0.153869,15.4284,-0.03988,0.094153,-0.18512,-0.16448
1,-0.163184,15.4447,-0.031674,0.06735,-0.20156,-0.13607
1,-0.172838,15.4585,-0.023651,0.031571,-0.21517,-0.10849
1,-0.182785,15.4702,-0.014176,-0.012772,-0.22602,-0.076527
1,-0.192397,15.4786,-0.0035299,-0.06432,-0.23367,-0.041177
1,-0.202072,15.4819,0.0073427,-0.12096,-0.23779,-0.0034913
1,-0.210695,15.4785,0.017885,-0.17988,-0.23814,0.036904
1,-0.213853,15.4687,0.028689,-0.23798,-0.23445,0.082457
1,-0.207766,15.4529,0.040364,-0.29294,-0.2262,0.13479
1,-0.19407,15.4304,0.053786,-0.34969,-0.21272,0.19814
1,-0.177988,15.3989,0.067773,-0.40287,-0.19291,0.2673
1,-0.163631,15.3561,0.082199,-0.45314,-0.16618,0.33758
1,-0.15057,15.3013,0.096984,-0.50146,-0.13242,0.40055
1,-0.136342,15.2347,0.11235,-0.54856,-0.092366,0.45099
1,-0.121136,15.1578,0.12777,-0.5946,-0.047267,0.48989
1,-0.105478,15.0725,0.14326,-0.63903,0.0017222,0.52838
1,-0.089733,14.982,0.15738,-0.68158,0.05456,0.56802
1,-0.0733913,14.8895,0.1654,-0.72329,0.11136,0.58845
1,-0.0558578,14.7981,0.16338,-0.76543,0.17021,0.5701
1,-0.0373911,14.7091,0.15336,-0.80742,0.22722,0.5228
1,-0.0183236,14.6227,0.14104,-0.84668,0.2795,0.46934
1,0.00121481,14.5384,0.13077,-0.88075,0.32643,0.42449
1,0.0211295,14.4556,0.12243,-0.90847,0.36888,0.38686
1,0.0419214,14.373,0.11397,-0.92987,0.40757,0.34964
1,0.0631364,14.2894,0.10551,-0.94572,0.44253,0.31329
1,0.0844381,14.2038,0.096969,-0.95714,0.47386,0.27272
1,0.104061,14.1153,0.08819,-0.96568,0.50113,0.22164
1,0.116938,14.0221,0.078906,-0.97334,0.5233,0.15838
1,0.118996,13.922,0.069159,-0.98191,0.53913,0.08663
1,0.112644,13.8156,0.059399,-0.99255,0.5478,0.011311
1,0.104085,13.7055,0.050067,-1.0058,0.54893,-0.069121
1,0.0978999,13.5946,0.041392,-1.0217,0.54202,-0.14633
1,0.0942965,13.4843,0.033282,-1.0397,0.52738,-0.20406
1,0.0916051,13.375,0.025039,-1.0585,0.50698,-0.23535
1,0.0898918,13.2663,0.016706,-1.0759,0.48344,-0.24765
1,0.0884614,13.1582,0.0087336,-1.0897,0.45868,-0.25534
1,0.0866462,13.0506,0.0022762,-1.0981,0.43314,-0.2623
1,0.0844207,12.9429,0.00014567,-1.0993,0.40691,-0.25338
1,0.0824611,12.8343,0.0042336,-1.0914,0.38158,-0.21263
1,0.081406,12.724,0.012643,-1.0751,0.36031,-0.14928
1,0.0818098,12.6111,0.021548,-1.053,0.34538,-0.081621
1,0.0839997,12.495,0.028277,-1.0278,0.33722,-0.020442
1,0.0876934,12.3762,0.032744,-1.0008,0.33518,0.035631
1,0.0919996,12.2561,0.035927,-0.9727,0.33874,0.089613
1,0.0965491,12.1377,0.037934,-0.94349,0.3477,0.13884
1,0.101905,12.0245,0.039325,-0.91347,0.36159,0.18495
1,0.108613,11.9191,0.040693,-0.88283,0.38008,0.23524
1,0.11723,11.8236,0.042134,-0.8513,0.40361,0.29172
1,0.127464,11.7393,0.043023,-0.81816,0.43278,0.34636
1,0.137931,11.6653,0.042771,-0.78241,0.46741,0.39239
1,0.147182,11.5994,0.040859,-0.74314,0.50665,0.43057
1,0.154454,11.539,0.036993,-0.70006,0.54971,0.45808
1,0.159785,11.4827,0.031505,-0.65356,0.59552,0.46814
1,0.163458,11.4296,0.02503,-0.60476,0.64233,0.45855
1,0.16576,11.3793,0.017864,-0.55555,0.68819,0.43574
1,0.167111,11.3313,0.0098161,-0.50784,0.73176,0.40701
1,0.168032,11.2849,0.0006249,-0.46313,0.77246,0.37192
1,0.168688,11.2403,-0.0098743,-0.42265,0.80965,0.32394
1,0.168507,11.198,-0.020975,-0.38727,0.84205,0.2593
1,0.166949,11.1592,-0.031231,-0.35712,0.86798,0.18611
1,0.163528,11.1248,-0.038821,-0.33186,0.88659,0.11845
1,0.157986,11.0949,-0.042454,-0.31124,0.89843,0.061787
1,0.150704,11.0691,-0.041465,-0.29491,0.90461,0.016233
1,0.14206,11.0466,-0.03585,-0.28204,0.90623,-0.013
1,0.132276,11.0266,-0.026406,-0.27113,0.90493,-0.018925
1,0.121538,11.0088,-0.01429,-0.26048,0.90304,-0.001423
1,0.109863,10.9928,0.00011585,-0.24911,0.9029,0.032575
1,0.0974808,10.9783,0.017595,-0.23701,0.90616,0.084837
1,0.0855131,10.9647,0.038938,-0.22501,0.91464,0.16277
1,0.0754677,10.9511,0.064071,-0.21417,0.93092,0.26724
1,0.0695397,10.9357,0.092509,-0.20525,0.95764,0.39425
1,0.069545,10.9166,0.12399,-0.19844,0.99707,0.53992
1,0.0768543,10.8928,0.15792,-0.19346,1.0511,0.70085
1,0.091759,10.8655,0.19387,-0.18981,1.1211,0.87585
1,0.112947,10.8371,0.23101,-0.18688,1.2087,1.0592
1,0.138531,10.8103,0.26835,-0.18408,1.3146,1.244
1,0.168263,10.7867,0.30539,-0.18082,1.439,1.428
1,0.203877,10.7662,0.34162,-0.17663,1.5819,1.6109
1,0.246383,10.748,0.37626,-0.17111,1.7429,1.7936
1,0.29509,10.7308,0.40875,-0.16338,1.9223,1.9727
1,0.348546,10.7143,0.43739,-0.15162,2.1196,2.1322
1,0.405957,10.698,0.46008,-0.13347,2.3328,2.2646
1,0.466547,10.6822,0.47538,-0.10723,2.5592,2.3676
1,0.529808,10.6669,0.48266,-0.073152,2.796,2.4322
1,0.594303,10.6528,0.48196,-0.033851,3.0392,2.4463
1,0.65824,10.6406,0.4749,0.007158,3.2838,2.4133
1,0.720649,10.6311,0.46294,0.047362,3.5252,2.3473
1,0.780729,10.625,0.44558,0.086011,3.7599,2.2488
1,0.838038,10.6225,0.42179,0.12367,3.9848,2.112
1,0.892965,10.6243,0.39063,0.16121,4.196,1.9327
1,0.944313,10.6325,0.35206,0.19951,4.3892,1.7116
1,0.989714,10.6496,0.30679,0.23969,4.5604,1.4539
1,1.02762,10.6784,0.25666,0.28296,4.7058,1.1692
1,1.05709,10.7192,0.20302,0.32998,4.8227,0.86178
1,1.07686,10.7694,0.14754,0.38032,4.9089,0.54033
1,1.08834,10.8246,0.092052,0.43263,4.9629,0.21582
1,1.09413,10.8814,0.037647,0.48538,4.9845,-0.1025
1,1.09503,10.9383,-0.015061,0.53776,4.9743,-0.40938
1,1.08997,10.9953,-0.066094,0.58982,4.9333,-0.71059
1,1.07635,11.0532,-0.11629,0.64164,4.8623,-1.011
1,1.05267,11.1133,-0.16522,0.69224,4.7612,-1.3015
1,1.01954,11.1774,-0.21114,0.73941,4.631,-1.5742
1,0.979876,11.2481,-0.25316,0.78041,4.4736,-1.8276
1,0.935846,11.3269,-0.29056,0.81373,4.2908,-2.0551
1,0.889379,11.4135,-0.3214,0.84027,4.0853,-2.2381
1,0.842343,11.5059,-0.34613,0.86263,3.8615,-2.3704
1,0.795943,11.6019,-0.36726,0.88331,3.6245,-2.4653
1,0.750607,11.7005,-0.38644,0.90338,3.378,-2.535
1,0.705851,11.8021,-0.40303,0.92272,3.1245,-2.5797
1,0.660388,11.9076,-0.41399,0.94078,2.8665,-2.5868
1,0.61388,12.0169,-0.4171,0.95647,2.6078,-2.5457
1,0.567443,12.1284,-0.41261,0.96794,2.3532,-2.4568
1,0.521287,12.2392,-0.40333,0.97317,2.1075,-2.3314
1,0.47597,12.3466,-0.3913,0.9717,1.8744,-2.177
1,0.434072,12.4499,-0.37725,0.965,1.6567,-1.998
1,0.39608,12.5499,-0.36176,0.95569,1.4569,-1.7992
1,0.35961,12.648,-0.34575,0.94612,1.277,-1.5883
1,0.322147,12.745,-0.32963,0.93678,1.1182,-1.3698
1,0.283917,12.8407,-0.31231,0.90297,0.98119,-1.2038
1,0.248367,12.9348,-0.29406,0.86572,0.86081,-1.0241
1,0.218458,13.0262,-0.27453,0.82502,0.7584,-0.8314
1,0.19432,13.1133,-0.25439,0.78191,0.67526,-0.6278
1,0.17322,13.1945,-0.23385,0.73818,0.61248,-0.41266
1,0.153251,13.2703,-0.21325,0.69548,0.57122,-0.19052
1,0.134888,13.3435,-0.19393,0.65452,0.55216,0.022656
2,-0.0176673,14.9324,0.0073466,0.17465,0.025053,0.10121
2,-0.0170451,14.9707,0.0083113,0.19637,0.035173,0.1074
2,-0.0163928,15.0006,0.0096465,0.2119,0.045914,0.11205
2,-0.0157589,15.0245,0.011536,0.22147,0.057119,0.11679
2,-0.0151338,15.0441,0.013185,0.22482,0.068798,0.11965
2,-0.0145289,15.0606,0.014084,0.22186,0.080763,0.11927
2,-0.013967,15.0744,0.014755,0.21344,0.09269,0.11809
2,-0.0134305,15.0856,0.015444,0.20135,0.1045,0.11723
2,-0.012717,15.0944,0.016014,0.18768,0.11622,0.11435
2,-0.0116576,15.1012,0.01656,0.17422,0.12766,0.10667
2,-0.0103206,15.107,0.01716,0.16207,0.13832,0.21004
2,-0.00852481,15.1484,0.01828,0.14,0.15933,0.19229
2,-0.00609152,15.1866,0.019362,0.12275,0.17856,0.17826
2,-0.0026702,15.2203,0.020439,0.10895,0.19638,0.16439
2,0.000791924,15.2471,0.021498,0.097631,0.21282,0.15041
2,0.00345862,15.2651,0.022554,0.088119,0.22786,0.1371
2,0.0059411,15.2739,0.023626,0.080132,0.24157,0.12365
2,0.00858707,15.2746,0.024702,0.073873,0.25394,0.10869
2,0.0111577,15.2702,0.025595,0.069369,0.26481,0.092478
2,0.0137976,15.2634,0.026119,0.066287,0.27406,0.075469
2,0.0166528,15.2565,0.026315,0.064249,0.2816,0.058632
2,0.019515,15.2507,0.025988,0.044991,0.28747,0.036957
2,0.0223303,15.2461,0.024922,0.027704,0.29116,0.016638
2,0.02512,15.2424,0.022986,0.012784,0.29283,-0.0040252
2,0.0278621,15.2394,0.020727,0.00094146,0.29242,-0.024491
2,0.0305782,15.2368,0.018608,-0.0068353,0.28997,-0.043215
2,0.0332857,15.2347,0.016361,-0.010169,0.28565,-0.061602
2,0.0359731,15.2334,0.013851,-0.0097157,0.27949,-0.080599
2,0.0384727,15.2331,0.011241,-0.0067806,0.27143,-0.097751
2,0.04058,15.2338,0.008477,-0.0027993,0.26166,-0.10898
2,0.0423102,15.2355,0.0054991,0.0011195,0.25076,-0.11401
2,0.043452,15.2383,0.0024434,0.0044272,0.23936,-0.11751
2,0.0437516,15.242,-0.00065711,0.0070516,0.22761,-0.12263
2,0.0433019,15.2458,-0.0038012,0.009157,0.21534,-0.12864
2,0.0422454,15.249,-0.0069681,0.010886,0.20248,-0.13577
2,0.0406739,15.2515,-0.010161,0.012355,0.1889,-0.14482
2,0.038663,15.2535,-0.013374,0.013577,0.17442,-0.1536
2,0.0362888,15.2552,-0.016605,0.014358,0.15906,-0.15955
2,0.0336402,15.2566,-0.019772,0.014649,0.1431,-0.16393
2,0.0307515,15.2578,-0.022753,0.01433,0.12671,-0.16695
2,0.0276511,15.2587,-0.025555,0.013013,0.11002,-0.16836
2,0.0244017,15.2595,-0.028045,0.010857,0.093181,-0.17073
2,0.0210161,15.2602,-0.029814,0.0089884,0.076108,-0.17489
2,0.0175176,15.2607,-0.030831,0.008627,0.058619,-0.1789
2,0.0139259,15.2612,-0.031336,0.0096705,0.040729,-0.18154
2,0.0102569,15.2615,-0.031419,0.010968,0.022575,-0.18308
2,0.00653733,15.2618,-0.030855,0.012186,0.0042674,-0.18253
2,0.00276261,15.2621,-0.029106,0.014497,-0.013986,-0.17768
2,-0.00107085,15.2624,-0.025947,0.01943,-0.031754,-0.16782
2,-0.00492658,15.2624,-0.021433,0.027597,-0.048536,-0.1538
2,-0.00880074,15.2615,-0.015644,0.038545,-0.063916,-0.13593
2,-0.0126375,15.2601,-0.0087698,0.051012,-0.077508,-0.11375
2,-0.0158773,15.26,-0.0014901,0.063253,-0.088884,-0.088065
2,-0.0183601,15.2631,0.0056246,0.073821,-0.09769,-0.060785
2,-0.0204273,15.2683,0.013379,0.082379,-0.10377,-0.028879
2,-0.0221636,15.2734,0.023269,0.089643,-0.10666,0.013681
2,-0.0230473,15.2779,0.035992,0.096574,-0.10529,0.068045
2,-0.0219225,15.2842,0.05115,0.1037,-0.098484,0.13131
2,-0.0182543,15.2955,0.068172,0.11103,-0.085353,0.2018
2,-0.0121136,15.313,0.086708,0.11865,-0.065173,0.27815
2,-0.0036377,15.3358,0.1065,0.12683,-0.037357,0.35879
2,0.00686204,15.3615,0.1275,0.13495,-0.0014783,0.44471
2,0.0180358,15.3867,0.14912,0.1411,0.042993,0.53478
2,0.0287668,15.4084,0.17053,0.14371,0.096471,0.62523
2,0.0406846,15.4259,0.19105,0.14415,0.15899,0.71296
2,0.0567958,15.4408,0.20994,0.14586,0.23029,0.7945
2,0.0785215,15.455,0.22604,0.15008,0.30974,0.86509
2,0.105063,15.4695,0.238,0.15402,0.39625,0.92037
2,0.135272,15.4845,0.24557,0.15314,0.48829,0.95966
2,0.16849,15.4997,0.24915,0.14491,0.58425,0.98541
2,0.204196,15.5152,0.24913,0.13018,0.68279,0.99867
2,0.242369,15.53,0.24592,0.11184,0.78266,0.99853
2,0.282372,15.5422,0.24112,0.093402,0.88251,0.98967
2,0.322704,15.5505,0.2368,0.077881,0.98148,0.98065
2,0.361677,15.5566,0.23258,0.06612,1.0795,0.97013
2,0.397709,15.5651,0.22649,0.056805,1.1766,0.95037
2,0.42903,15.5781,0.21749,0.048039,1.2716,0.91769
2,0.454086,15.5923,0.20596,0.039005,1.3634,0.87314
2,0.472893,15.6018,0.19253,0.029326,1.4507,0.81937
2,0.486187,15.6028,0.17755,0.017587,1.5326,0.75815
2,0.494632,15.5962,0.16156,0.0025656,1.6084,0.69178
2,0.498709,15.5852,0.14515,-0.01458,1.6776,0.62275
2,0.500279,15.5735,0.12876,-0.030863,1.7399,0.55194
2,0.502367,15.5641,0.11325,-0.043169,1.7951,0.48247
2,0.505845,15.5582,0.10021,-0.051185,1.8433,0.422
2,0.509775,15.5544,0.091034,-0.057855,1.8855,0.37799
2,0.513501,15.5511,0.086827,-0.064985,1.9233,0.35508
2,0.516977,15.5475,0.088328,-0.071003,1.9588,0.3532
2,0.520327,15.5431,0.095189,-0.072104,1.9942,0.36851
2,0.523586,15.5349,0.10664,-0.065665,2.031,0.39683
2,0.527321,15.5203,0.12204,-0.052394,2.0707,0.43705
2,0.532662,15.5008,0.14111,-0.034638,2.1144,0.49228
2,0.539883,15.4805,0.16263,-0.014782,2.1636,0.55862
2,0.549201,15.4642,0.18327,0.0049407,2.2195,0.62186
2,0.562095,15.4543,0.20025,0.022823,2.2817,0.67214
2,0.579777,15.4494,0.21173,0.038097,2.3489,0.70426
2,0.602684,15.4481,0.21661,0.051023,2.4193,0.71686
2,0.630742,15.4502,0.21587,0.061933,2.491,0.71555
2,0.663272,15.4576,0.21078,0.072498,2.5625,0.70401
2,0.699476,15.4715,0.20196,0.086615,2.6329,0.68309
2,0.738718,15.4914,0.18924,0.10744,2.7013,0.65132
2,0.780922,15.5159,0.17198,0.13448,2.7664,0.60569
2,0.825537,15.5439,0.15094,0.1648,2.827,0.55038
2,0.868907,15.574,0.12673,0.19464,2.882,0.48745
2,0.90634,15.6038,0.098713,0.22137,2.9307,0.40994
2,0.93324,15.6306,0.066533,0.24467,2.9717,0.31401
2,0.946715,15.6531,0.030533,0.26492,3.0031,0.2011
2,0.948714,15.6714,-0.0083692,0.28284,3.0232,0.078085
2,0.941879,15.6881,-0.048792,0.2989,3.0311,-0.046655
2,0.927498,15.7081,-0.089346,0.31282,3.0264,-0.17119
2,0.905796,15.7352,-0.12977,0.3235,3.0093,-0.298
2,0.876615,15.7698,-0.17122,0.32976,2.9795,-0.43221
2,0.84176,15.8101,-0.21411,0.33173,2.9362,-0.57449
2,0.80266,15.8534,-0.25598,0.33138,2.8788,-0.71453
2,0.759521,15.897,-0.29344,0.33237,2.8073,-0.84007
2,0.712843,15.9388,-0.32275,0.3379,2.7233,-0.93947
2,0.66375,15.9779,-0.34141,0.34911,2.6294,-1.0076
2,0.614003,16.0159,-0.3509,0.36539,2.5286,-1.0523
2,0.565689,16.0553,-0.3531,0.38373,2.4234,-1.079
2,0.520784,16.0971,-0.34904,0.39949,2.3155,-1.0894
2,0.479173,16.1384,-0.33953,0.40872,2.2066,-1.085
2,0.438472,16.1755,-0.32535,0.40899,2.0981,-1.0675
2,0.397312,16.2074,-0.3081,0.39926,1.9913,-1.0421
2,0.356944,16.2368,-0.28829,0.38053,1.8871,-1.0095
2,0.319468,16.2685,-0.26583,0.35513,1.7862,-0.96682
2,0.287741,16.3064,-0.24096,0.3257,1.6895,-0.91406
2,0.263903,16.3513,-0.2142,0.29291,1.5981,-0.85339
2,0.246907,16.4021,-0.18742,0.25418,1.5127,-0.79273
2,0.235677,16.4556,-0.16334,0.20661,1.4335,-0.74194
2,0.229427,16.5071,-0.14376,0.15154,1.3593,-0.70119
2,0.226731,16.5526,-0.12405,0.1202,1.2891,-0.65513
2,0.225922,16.5877,-0.1057,0.090498,1.2236,-0.60859
2,0.225568,16.6086,-0.087359,0.063945,1.1628,-0.55778
2,0.226079,16.6145,-0.06941,0.038334,1.107,-0.50452
2,0.22787,16.6073,-0.052836,0.0092126,1.0565,-0.45262
2,0.230931,16.5902,-0.039308,-0.026703,1.0113,-0.40744
2,0.235359,16.5637,-0.02996,-0.070598,0.97054,-0.37232
2,0.239167,16.5243,-0.024373,-0.12254,0.9333,-0.34412
2,0.239,16.4686,-0.022597,-0.18107,0.89889,-0.32272
2,0.233255,16.4002,-0.019472,-0.20684,0.86662,-0.2961
2,0.231076,16.3788,-0.019077,-0.24169,0.83701,-0.16511
2,0.227079,16.3565,-0.019688,-0.27462,0.8205,-0.15961
2,0.222593,16.3353,-0.020638,-0.30305,0.80454,-0.15326
2,0.218124,16.3134,-0.022247,-0.32568,0.78921,-0.14804
2,0.213795,16.287,-0.024924,-0.34255,0.77441,-0.14532
2,0.209125,16.253,-0.028891,-0.35481,0.75988,-0.14574
2,0.203983,16.2101,-0.034519,-0.36179,0.7453,-0.15049
2,0.198161,16.1571,-0.040569,-0.35906,0.73025,-0.15546
2,0.190484,16.0934,-0.044106,-0.34104,0.71471,-0.15164
2,0.190484,16.0934,-0.044106,-0.34104,0.69954,-0.15164
3,0.104159,13.2454,-0.0051512,0.10594,0.28442,-0.016735
3,0.109,13.2408,-0.0042679,0.1011,0.28274,-0.0021591
3,0.112282,13.2436,-0.0045955,0.10159,0.28253,0.0036729
3,0.11331,13.252,-0.0057966,0.10574,0.2829,0.0031099
3,0.112773,13.2639,-0.0075074,0.11218,0.28321,-0.0017572
3,0.111317,13.2777,-0.009525,0.12019,0.28303,-0.0086064
3,0.109292,13.2924,-0.011796,0.12942,0.28217,-0.016851
3,0.10692,13.3075,-0.014263,0.13934,0.28048,-0.026014
3,0.104355,13.3225,-0.016883,0.14904,0.27788,-0.035753
3,0.101687,13.3371,-0.019583,0.15763,0.27431,-0.046138
3,0.0990073,13.3513,-0.022412,0.1648,0.26969,-0.044098
3,0.0994639,13.3566,-0.028891,0.18155,0.26528,-0.074952
3,0.0986439,13.3673,-0.034323,0.19423,0.25779,-0.10042
3,0.0966231,13.3828,-0.038126,0.20384,0.24775,-0.11859
3,0.0936482,13.4024,-0.040702,0.21142,0.23589,-0.13172
3,0.089871,13.4257,-0.042618,0.21816,0.22272,-0.14182
3,0.0852853,13.4524,-0.044075,0.22535,0.20853,-0.14958
3,0.0799122,13.4823,-0.045097,0.23422,0.19358,-0.1548
3,0.0737694,13.5136,-0.045713,0.24567,0.1781,-0.15816
3,0.0669502,13.5449,-0.046048,0.26014,0.16228,-0.15897
3,0.0593346,13.575,-0.04653,0.2781,0.14638,-0.15622
3,0.051218,13.6039,-0.048444,0.30467,0.13076,-0.16152
3,0.0436348,13.6321,-0.048927,0.33364,0.11461,-0.16417
3,0.0370587,13.6597,-0.047518,0.36626,0.098194,-0.16989
3,0.0313683,13.6868,-0.044279,0.40336,0.081205,-0.18374
3,0.0260818,13.714,-0.039506,0.44377,0.062831,-0.20648
3,0.0211424,13.7431,-0.033591,0.48495,0.042183,-0.23606
3,0.0167271,13.7759,-0.02721,0.52491,0.018577,-0.27332
3,0.0129297,13.8138,-0.021016,0.56288,-0.0087545,-0.3192
3,0.00959077,13.8574,-0.015221,0.59868,-0.040674,-0.37236
3,0.00594673,13.9075,-0.0093012,0.63227,-0.07791,-0.42807
3,0.00257675,13.9659,-0.0034104,0.66337,-0.12072,-0.48244
3,0.000789161,14.0346,0.0018709,0.69173,-0.16896,-0.5322
3,0.00158734,14.1154,0.0064571,0.71748,-0.22218,-0.56736
3,0.00509062,14.2091,0.010449,0.74076,-0.27892,-0.57549
3,0.0108581,14.3132,0.01429,0.76116,-0.33647,-0.54754
3,0.0181038,14.4223,0.018087,0.7776,-0.39122,-0.4818
3,0.0254931,14.5321,0.021675,0.7888,-0.4394,-0.39174
3,0.0317377,14.6394,0.02492,0.79389,-0.47857,-0.29453
3,0.0365088,14.7422,0.027941,0.79245,-0.50803,-0.20366
3,0.0407322,14.8395,0.031446,0.78381,-0.52839,-0.1299
3,0.0443972,14.9306,0.034826,0.76629,-0.54138,-0.076525
3,0.0473765,15.0155,0.036761,0.73806,-0.54904,-0.036063
3,0.0499728,15.0946,0.036209,0.6973,-0.55264,0.0030034
3,0.0522655,15.1683,0.033034,0.64322,-0.55234,0.052247
3,0.0546623,15.2364,0.027671,0.57837,-0.54712,0.11339
3,0.0573163,15.2983,0.020963,0.5078,-0.53578,0.18388
3,0.0600779,15.3535,0.014308,0.43616,-0.51739,0.26612
3,0.0627705,15.4016,0.0089806,0.36682,-0.49078,0.36213
3,0.0654719,15.4423,0.0052643,0.30209,-0.45456,0.47248
3,0.0688385,15.4751,0.0023149,0.24263,-0.40732,0.59
3,0.0722291,15.4985,1.32E-05,0.18827,-0.34832,0.70524
3,0.0743102,15.5107,-0.0016409,0.13851,-0.27779,0.80873
3,0.0740048,15.51,-0.0028382,0.092897,-0.19692,0.8837
3,0.0711593,15.4956,-0.0036773,0.051324,-0.10855,0.90926
3,0.0661993,15.4699,-0.0044505,0.013799,-0.017624,0.86839
3,0.0600296,15.438,-0.0053533,-0.019555,0.069215,0.75704
3,0.0541095,15.4044,-0.0063832,-0.048424,0.14492,0.5981
3,0.049699,15.373,-0.0075181,-0.072701,0.20473,0.42429
3,0.0470374,15.3464,-0.0089506,-0.092541,0.24716,0.2576
3,0.045362,15.3248,-0.01105,-0.10823,0.27292,0.11226
3,0.0444236,15.3072,-0.013432,-0.11943,0.28414,-0.007603
3,0.0440947,15.2926,-0.015502,-0.12492,0.28338,-0.10696
3,0.0442965,15.2804,-0.016661,-0.12282,0.27269,-0.19248
3,0.0449109,15.2709,-0.016527,-0.1119,0.25344,-0.27117
3,0.0457614,15.264,-0.015311,-0.093314,0.22632,-0.34598
3,0.0466098,15.2592,-0.013871,-0.070418,0.19172,-0.41879
3,0.0473116,15.2567,-0.012864,-0.046573,0.14985,-0.49128
3,0.0477343,15.2562,-0.011879,-0.023689,0.10072,-0.56073
3,0.0475706,15.2572,-0.0099258,-0.0020589,0.044644,-0.62475
3,0.0467376,15.2587,-0.0062502,0.019152,-0.017831,-0.67875
3,0.0453641,15.2596,-0.0010444,0.040654,-0.085706,-0.71709
3,0.0433065,15.2608,0.0053155,0.062627,-0.15741,-0.73535
3,0.040683,15.2643,0.01261,0.084787,-0.23095,-0.72832
3,0.0381046,15.2718,0.020698,0.10663,-0.30378,-0.6893
3,0.0355768,15.2833,0.029489,0.12808,-0.37271,-0.61208
3,0.0322878,15.2971,0.03865,0.14972,-0.43392,-0.49714
3,0.0283823,15.3112,0.048216,0.17246,-0.48363,-0.35567
3,0.0259412,15.3257,0.058768,0.1974,-0.5192,-0.2017
3,0.0271858,15.3423,0.070999,0.22615,-0.53937,-0.043136
3,0.0328616,15.3631,0.084881,0.26055,-0.54368,0.11321
3,0.0423348,15.3885,0.097083,0.30054,-0.53236,0.25285
3,0.0547257,15.4178,0.1046,0.3436,-0.50708,0.36822
3,0.0695173,15.45,0.10585,0.38665,-0.47026,0.45887
3,0.0863079,15.4842,0.10188,0.42797,-0.42437,0.53123
3,0.104739,15.5201,0.097058,0.46795,-0.37125,0.59943
3,0.123909,15.5587,0.096706,0.50818,-0.3113,0.67978
3,0.143743,15.6016,0.10295,0.54999,-0.24333,0.77904
3,0.16527,15.651,0.11255,0.59291,-0.16542,0.88574
3,0.189568,15.7095,0.12245,0.63463,-0.076848,0.98712
3,0.216501,15.7798,0.13122,0.67303,0.021864,1.073
3,0.239531,15.8607,0.13894,0.7075,0.12916,1.1378
3,0.252503,15.9481,0.14601,0.73865,0.24294,1.1786
3,0.252388,16.0376,0.15254,0.76743,0.3608,1.1947
3,0.24187,16.1277,0.15863,0.79462,0.48027,1.1895
3,0.229693,16.2192,0.16435,0.82035,0.59923,1.1677
3,0.2257,16.3135,0.17036,0.8433,0.716,1.1346
3,0.234283,16.4112,0.17652,0.86246,0.82946,1.0921
3,0.251043,16.5115,0.18176,0.87771,0.93866,1.0376
3,0.272082,16.6115,0.18519,0.88783,1.0424,0.96957
3,0.295305,16.7091,0.18666,0.89246,1.1394,0.89291
3,0.320215,16.8035,0.19189,0.89323,1.2287,0.83335
3,0.346745,16.8951,0.2061,0.89261,1.312,0.80725
3,0.374603,16.9849,0.23217,0.89316,1.3927,0.81775
3,0.403558,17.0734,0.26822,0.89525,1.4745,0.85486
3,0.433435,17.1608,0.3057,0.89729,1.56,0.89354
3,0.464627,17.2453,0.33427,0.89813,1.6493,0.90516
3,0.496776,17.3265,0.34836,0.89772,1.7399,0.87337
3,0.52878,17.4064,0.35054,0.89641,1.8272,0.80811
3,0.559956,17.4852,0.34294,0.89396,1.908,0.71952
3,0.589827,17.5647,0.32695,0.89017,1.98,0.61672
3,0.623317,17.6472,0.30479,0.88682,2.0416,0.51028
3,0.664698,17.7333,0.27844,0.88612,2.0927,0.40765
3,0.716726,17.8239,0.24877,0.88954,2.1334,0.31238
3,0.778312,17.9182,0.21637,0.89801,2.1647,0.2245
3,0.841093,18.0138,0.18158,0.91129,2.1871,0.14115
3,0.894241,18.1097,0.14456,0.9299,2.2012,0.060827
3,0.93101,18.2067,0.10572,0.95244,2.2073,-0.015666
3,0.952122,18.3043,0.065906,0.9758,2.2057,-0.0872
3,0.957965,18.3995,0.025605,0.99879,2.197,-0.15816
3,0.949203,18.4895,-0.014664,1.0193,2.1812,-0.23722
3,0.929793,18.5771,-0.056605,1.036,2.1575,-0.33841
3,0.903627,18.6674,-0.10159,1.0489,2.1236,-0.46697
3,0.872149,18.7639,-0.15123,1.0576,2.0769,-0.62408
3,0.836302,18.8694,-0.20594,1.0625,2.0145,-0.80524
3,0.796591,18.9834,-0.26152,1.0664,1.934,-0.9931
3,0.75375,19.1051,-0.31145,1.0709,1.8347,-1.1649
3,0.708214,19.2314,-0.35118,1.076,1.7182,-1.3052
3,0.660592,19.358,-0.38046,1.0824,1.5877,-1.4192
3,0.611167,19.4828,-0.39881,1.0945,1.4458,-1.5113
3,0.560499,19.6034,-0.40211,1.0804,1.2946,-1.5288
3,0.510107,19.7191,-0.39807,1.0715,1.1418,-1.5349
3,0.461509,19.8312,-0.39003,1.0632,0.98826,-1.5387
3,0.414264,19.9392,-0.37897,1.0518,0.83439,-1.5432
3,0.36644,20.0433,-0.36551,1.0344,0.68007,-1.551
3,0.318058,20.1466,-0.34983,1.0114,0.52497,-1.5619
3,0.271347,20.2515,-0.3324,0.9842,0.36878,-1.5796
3,0.22865,20.3587,-0.31337,0.95467,0.21082,-1.6092
3,0.191196,20.4691,-0.29337,0.92492,0.049893,-1.6525
3,0.160342,20.5885,-0.26866,0.86254,-0.11536,-1.5914
3,0.144982,20.6503,-0.25613,0.84447,-0.2745,-0.91084
4,0.104129,13.4083,-0.037179,0.1366,0.25954,-0.070457
4,0.0990346,13.4276,-0.040722,0.15155,0.25249,-0.084901
4,0.0944039,13.4451,-0.044093,0.16304,0.244,-0.096949
4,0.0901713,13.4609,-0.046534,0.17217,0.2343,-0.10431
4,0.0863208,13.4752,-0.047908,0.17958,0.22387,-0.1076
4,0.0828118,13.4882,-0.048507,0.18566,0.21311,-0.10866
4,0.0796081,13.5006,-0.04878,0.19111,0.20225,-0.10862
4,0.0764917,13.5128,-0.048816,0.19698,0.19139,-0.10764
4,0.0733051,13.5247,-0.048557,0.20425,0.18062,-0.10515
4,0.0700999,13.5355,-0.048,0.21344,0.17011,-0.10174
4,0.0669502,13.5449,-0.047269,0.22457,0.15993,-0.18948
4,0.0593346,13.575,-0.046544,0.23996,0.14099,-0.18049
4,0.051218,13.6039,-0.045914,0.26042,0.12294,-0.16915
4,0.0436348,13.6321,-0.044691,0.28682,0.10602,-0.15951
4,0.0370587,13.6597,-0.042367,0.32009,0.090071,-0.15738
4,0.0313683,13.6868,-0.038861,0.36049,0.074332,-0.1674
4,0.0260818,13.714,-0.034375,0.40632,0.057592,-0.18924
4,0.0211424,13.7431,-0.029194,0.45475,0.038668,-0.2203
4,0.0167271,13.7759,-0.023906,0.50366,0.016638,-0.26097
4,0.0129297,13.8138,-0.019181,0.55195,-0.0094588,-0.31215
4,0.00959077,13.8574,-0.015221,0.59868,-0.040674,-0.37236
4,0.00594673,13.9075,-0.0093012,0.63227,-0.07791,-0.42807
4,0.00257675,13.9659,-0.0034104,0.66337,-0.12072,-0.48244
4,0.000789161,14.0346,0.0018709,0.69173,-0.16896,-0.5322
4,0.00158734,14.1154,0.0064571,0.71748,-0.22218,-0.56736
4,0.00509062,14.2091,0.010449,0.74076,-0.27892,-0.57549
4,0.0108581,14.3132,0.01429,0.76116,-0.33647,-0.54754
4,0.0181038,14.4223,0.018087,0.7776,-0.39122,-0.4818
4,0.0254931,14.5321,0.021675,0.7888,-0.4394,-0.39174
4,0.0317377,14.6394,0.02492,0.79389,-0.47857,-0.29453
4,0.0365088,14.7422,0.027941,0.79245,-0.50803,-0.20366
4,0.0407322,14.8395,0.031446,0.78381,-0.52839,-0.1299
4,0.0443972,14.9306,0.034826,0.76629,-0.54138,-0.076525
4,0.0473765,15.0155,0.036761,0.73806,-0.54904,-0.036063
4,0.0499728,15.0946,0.036209,0.6973,-0.55264,0.0030034
4,0.0522655,15.1683,0.033034,0.64322,-0.55234,0.052247
4,0.0546623,15.2364,0.027671,0.57837,-0.54712,0.11339
4,0.0573163,15.2983,0.020963,0.5078,-0.53578,0.18388
4,0.0600779,15.3535,0.014308,0.43616,-0.51739,0.26612
4,0.0627705,15.4016,0.0089806,0.36682,-0.49078,0.36213
4,0.0654719,15.4423,0.0052643,0.30209,-0.45456,0.47248
4,0.0688385,15.4751,0.0023149,0.24263,-0.40732,0.59
4,0.0722291,15.4985,1.32E-05,0.18827,-0.34832,0.70524
4,0.0743102,15.5107,-0.0016409,0.13851,-0.27779,0.80873
4,0.0740048,15.51,-0.0028382,0.092897,-0.19692,0.8837
4,0.0711593,15.4956,-0.0036773,0.051324,-0.10855,0.90926
4,0.0661993,15.4699,-0.0044505,0.013799,-0.017624,0.86839
4,0.0600296,15.438,-0.0053533,-0.019555,0.069215,0.75704
4,0.0541095,15.4044,-0.0063832,-0.048424,0.14492,0.5981
4,0.049699,15.373,-0.0075181,-0.072701,0.20473,0.42429
4,0.0470374,15.3464,-0.0089506,-0.092541,0.24716,0.2576
4,0.045362,15.3248,-0.01105,-0.10823,0.27292,0.11226
4,0.0444236,15.3072,-0.013432,-0.11943,0.28414,-0.007603
4,0.0440947,15.2926,-0.015502,-0.12492,0.28338,-0.10696
4,0.0442965,15.2804,-0.016661,-0.12282,0.27269,-0.19248
4,0.0449109,15.2709,-0.016527,-0.1119,0.25344,-0.27117
4,0.0457614,15.264,-0.015311,-0.093314,0.22632,-0.34598
4,0.0466098,15.2592,-0.013871,-0.070418,0.19172,-0.41879
4,0.0473116,15.2567,-0.012864,-0.046573,0.14985,-0.49128
4,0.0477343,15.2562,-0.011879,-0.023689,0.10072,-0.56073
4,0.0475706,15.2572,-0.0099258,-0.0020589,0.044644,-0.62475
4,0.0467376,15.2587,-0.0062502,0.019152,-0.017831,-0.67875
4,0.0453641,15.2596,-0.0010444,0.040654,-0.085706,-0.71709
4,0.0433065,15.2608,0.0053155,0.062627,-0.15741,-0.73535
4,0.040683,15.2643,0.01261,0.084787,-0.23095,-0.72832
4,0.0381046,15.2718,0.020698,0.10663,-0.30378,-0.6893
4,0.0355768,15.2833,0.029489,0.12808,-0.37271,-0.61208
4,0.0322878,15.2971,0.03865,0.14972,-0.43392,-0.49714
4,0.0283823,15.3112,0.048216,0.17246,-0.48363,-0.35567
4,0.0259412,15.3257,0.058768,0.1974,-0.5192,-0.2017
4,0.0271858,15.3423,0.070999,0.22615,-0.53937,-0.043136
4,0.0328616,15.3631,0.084881,0.26055,-0.54368,0.11321
4,0.0423348,15.3885,0.097083,0.30054,-0.53236,0.25285
4,0.0547257,15.4178,0.1046,0.3436,-0.50708,0.36822
4,0.0695173,15.45,0.10585,0.38665,-0.47026,0.45887
4,0.0863079,15.4842,0.10188,0.42797,-0.42437,0.53123
4,0.104739,15.5201,0.097058,0.46795,-0.37125,0.59943
4,0.123909,15.5587,0.096706,0.50818,-0.3113,0.67978
4,0.143743,15.6016,0.10295,0.54999,-0.24333,0.77904
4,0.16527,15.651,0.11255,0.59291,-0.16542,0.88574
4,0.189568,15.7095,0.12245,0.63463,-0.076848,0.98712
4,0.216501,15.7798,0.13122,0.67303,0.021864,1.073
4,0.239531,15.8607,0.13894,0.7075,0.12916,1.1378
4,0.252503,15.9481,0.14601,0.73865,0.24294,1.1786
4,0.252388,16.0376,0.15254,0.76743,0.3608,1.1947
4,0.24187,16.1277,0.15863,0.79462,0.48027,1.1895
4,0.229693,16.2192,0.16435,0.82035,0.59923,1.1677
4,0.2257,16.3135,0.17036,0.8433,0.716,1.1346
4,0.234283,16.4112,0.17652,0.86246,0.82946,1.0921
4,0.251043,16.5115,0.18176,0.87771,0.93866,1.0376
4,0.272082,16.6115,0.18519,0.88783,1.0424,0.96957
4,0.295305,16.7091,0.18666,0.89246,1.1394,0.89291
4,0.320215,16.8035,0.19189,0.89323,1.2287,0.83335
4,0.346745,16.8951,0.2061,0.89261,1.312,0.80725
4,0.374603,16.9849,0.23217,0.89316,1.3927,0.81775
4,0.403558,17.0734,0.26822,0.89525,1.4745,0.85486
4,0.433435,17.1608,0.3057,0.89729,1.56,0.89354
4,0.464627,17.2453,0.33427,0.89813,1.6493,0.90516
4,0.496776,17.3265,0.34836,0.89772,1.7399,0.87337
4,0.52878,17.4064,0.35054,0.89641,1.8272,0.80811
4,0.559956,17.4852,0.34294,0.89396,1.908,0.71952
4,0.589827,17.5647,0.32695,0.89017,1.98,0.61672
4,0.623317,17.6472,0.30479,0.88682,2.0416,0.51028
4,0.664698,17.7333,0.27844,0.88612,2.0927,0.40765
4,0.716726,17.8239,0.24877,0.88954,2.1334,0.31238
4,0.778312,17.9182,0.21637,0.89801,2.1647,0.2245
4,0.841093,18.0138,0.18158,0.91129,2.1871,0.14115
4,0.894241,18.1097,0.14456,0.9299,2.2012,0.060827
4,0.93101,18.2067,0.10572,0.95244,2.2073,-0.015666
4,0.952122,18.3043,0.065906,0.9758,2.2057,-0.0872
4,0.957965,18.3995,0.025605,0.99879,2.197,-0.15816
4,0.949203,18.4895,-0.014664,1.0193,2.1812,-0.23722
4,0.929793,18.5771,-0.056605,1.036,2.1575,-0.33841
4,0.903627,18.6674,-0.10159,1.0489,2.1236,-0.46697
4,0.872149,18.7639,-0.15123,1.0576,2.0769,-0.62408
4,0.836302,18.8694,-0.20594,1.0625,2.0145,-0.80524
4,0.796591,18.9834,-0.26152,1.0664,1.934,-0.9931
4,0.75375,19.1051,-0.31145,1.0709,1.8347,-1.1649
4,0.708214,19.2314,-0.35118,1.076,1.7182,-1.3052
4,0.660592,19.358,-0.38046,1.0824,1.5877,-1.4192
4,0.611167,19.4828,-0.39881,1.0945,1.4458,-1.5113
4,0.560499,19.6034,-0.40542,1.1166,1.2946,-1.5823
4,0.510107,19.7191,-0.40254,1.1471,1.1364,-1.6382
4,0.461509,19.8312,-0.39278,1.1824,0.97259,-1.6783
4,0.414264,19.9392,-0.37621,1.2183,0.80476,-1.6955
4,0.36644,20.0433,-0.35342,1.2496,0.6352,-1.6886
4,0.318058,20.1466,-0.32573,1.2745,0.46634,-1.6611
4,0.271347,20.2515,-0.29474,1.2938,0.30023,-1.6201
4,0.22865,20.3587,-0.26117,1.3099,0.13822,-1.5707
4,0.191196,20.4691,-0.22533,1.3247,-0.018852,-1.5117
4,0.160342,20.5885,-0.19927,1.3006,-0.17003,-1.4995
4,0.138359,20.7227,-0.17216,1.2783,-0.31998,-1.4683
5,-0.0353906,5.94396,0.063927,1.457,-0.24207,0.80634
5,-0.0280404,6.09084,0.060328,1.4334,-0.16143,0.70231
5,-0.0227364,6.22625,0.056995,1.4102,-0.091201,0.617
5,-0.0196121,6.3483,0.053633,1.386,-0.029501,0.56238
5,-0.0176592,6.45879,0.049982,1.3596,0.026737,0.52958
5,-0.0151486,6.56398,0.046541,1.3309,0.079695,0.49477
5,-0.0110184,6.67017,0.043497,1.3004,0.12917,0.44735
5,-0.00629854,6.78137,0.040742,1.2683,0.17391,0.3935
5,-0.00209124,6.89931,0.038206,1.2349,0.21326,0.34721
5,0.00145515,7.02383,0.035569,1.201,0.24798,0.31133
5,0.00444163,7.15375,0.032663,1.1688,0.27911,0.28049
5,0.00753086,7.28677,0.030081,1.1408,0.30716,0.25774
5,0.0110736,7.41953,0.02859,1.1196,0.33293,0.24442
5,0.0143467,7.54872,0.02839,1.1071,0.35738,0.23499
5,0.0167122,7.6718,0.029218,1.1025,0.38088,0.22994
5,0.0186164,7.78742,0.030147,1.1014,0.40387,0.21928
5,0.0206919,7.89596,0.030284,1.0983,0.4258,0.1899
5,0.0229222,7.99859,0.029594,1.089,0.44479,0.1405
5,0.0252543,8.09638,0.02872,1.0711,0.45884,0.083712
5,0.0276574,8.19025,0.028201,1.0446,0.46721,0.0428
5,0.0299349,8.28156,0.028009,1.0116,0.47149,0.019465
5,0.0321218,8.37239,0.027831,0.9747,0.47343,0.0017314
5,0.0344443,8.46536,0.027275,0.93648,0.47361,-0.013839
5,0.0371685,8.56244,0.026229,0.89853,0.47222,-0.029385
5,0.0407778,8.66379,0.024647,0.86157,0.46929,-0.043826
5,0.0451457,8.76671,0.022292,0.82596,0.4649,-0.055672
5,0.0495488,8.86679,0.019126,0.79164,0.45934,-0.065713
5,0.0528887,8.95941,0.01519,0.75834,0.45276,-0.075257
5,0.0553489,9.04146,0.010869,0.72585,0.44524,-0.088764
5,0.0578581,9.11309,0.0074383,0.69416,0.43636,-0.10244
5,0.0604603,9.17694,0.0059165,0.66316,0.42612,-0.10369
5,0.0631921,9.23617,0.0065135,0.63217,0.41575,-0.084998
5,0.0656232,9.29248,0.0089553,0.59961,0.40725,-0.047135
5,0.0668052,9.34578,0.01241,0.56381,0.40254,-0.0014538
5,0.0660062,9.39495,0.015906,0.52441,0.40239,0.03748
5,0.0631997,9.43934,0.01897,0.48328,0.40614,0.062975
5,0.0589433,9.47925,0.020965,0.44366,0.41244,0.070991
5,0.053303,9.51528,0.022608,0.40862,0.41954,0.067685
5,0.0469917,9.54809,0.024988,0.38,0.4263,0.058506
5,0.0425339,9.57857,0.028674,0.35751,0.43215,0.042776
5,0.041768,9.60788,0.035304,0.33954,0.43643,0.033027
5,0.0451488,9.63674,0.045573,0.32455,0.43973,0.035312
5,0.0523549,9.66457,0.05924,0.31199,0.44327,0.043757
5,0.0619884,9.69006,0.076477,0.30244,0.44764,0.054259
5,0.0725904,9.7126,0.097527,0.29691,0.45307,0.069358
5,0.0830853,9.73328,0.12209,0.29585,0.46,0.095081
5,0.0914778,9.7541,0.14935,0.29892,0.46951,0.13111
5,0.0981049,9.77665,0.17911,0.30565,0.48262,0.17728
5,0.105325,9.80147,0.21026,0.3158,0.50035,0.22911
5,0.115206,9.8281,0.23957,0.32902,0.52326,0.26949
5,0.131068,9.85602,0.26469,0.3445,0.55021,0.28345
5,0.154337,9.88527,0.28466,0.36134,0.57856,0.2645
5,0.184104,9.91646,0.29926,0.37941,0.605,0.21081
5,0.219759,9.95065,0.30982,0.39911,0.62609,0.1377
5,0.261061,9.98877,0.31816,0.42031,0.63986,0.065116
5,0.307378,10.031,0.32568,0.44176,0.64637,0.011428
5,0.357645,10.0771,0.33441,0.462,0.64751,-0.0033575
5,0.411523,10.1266,0.34425,0.48046,0.64717,0.01886
5,0.46752,10.1797,0.35292,0.49797,0.64906,0.060457
5,0.521675,10.2366,0.35857,0.51643,0.65511,0.10415
5,0.571149,10.2969,0.35857,0.53719,0.66552,0.1266
5,0.614459,10.3594,0.35206,0.5606,0.67818,0.12174
5,0.650868,10.4234,0.34021,0.58634,0.69036,0.10027
5,0.681633,10.4883,0.32361,0.61336,0.70038,0.069956
5,0.708913,10.5532,0.30269,0.6407,0.70738,0.031232
5,0.734443,10.6168,0.27801,0.66781,0.7105,-0.021327
5,0.760288,10.6781,0.25031,0.69458,0.70837,-0.085483
5,0.786605,10.7376,0.21997,0.72093,0.69982,-0.15781
5,0.811166,10.7974,0.18787,0.7465,0.68404,-0.23307
5,0.832341,10.861,0.15602,0.77091,0.66073,-0.3011
5,0.8482,10.9304,0.12569,0.79407,0.63062,-0.35554
5,0.858463,11.0065,0.097545,0.8162,0.59507,-0.39435
5,0.864518,11.0891,0.071989,0.83761,0.55563,-0.41517
5,0.866988,11.1774,0.048545,0.85867,0.51412,-0.42358
5,0.866438,11.2702,0.026188,0.8799,0.47176,-0.42985
5,0.86339,11.3667,0.0040938,0.90199,0.42877,-0.44343
5,0.858262,11.4662,-0.018679,0.92529,0.38443,-0.4734
5,0.851454,11.5684,-0.042132,0.94939,0.33709,-0.51919
5,0.843268,11.6727,-0.064943,0.97306,0.28517,-0.57161
5,0.833706,11.7784,-0.086156,0.99432,0.22801,-0.62164
5,0.822531,11.885,-0.10469,1.012,0.16585,-0.65846
5,0.809549,11.9918,-0.1203,1.0257,0.1,-0.67923
5,0.794847,12.0986,-0.13354,1.0352,0.032079,-0.68777
5,0.778723,12.2056,-0.14481,1.0412,-0.036698,-0.68785
5,0.76129,12.313,-0.15502,1.045,-0.10548,-0.68356
5,0.742631,12.4208,-0.16495,1.0478,-0.17384,-0.67599
5,0.72293,12.5287,-0.17524,1.0506,-0.24144,-0.66997
5,0.702341,12.6364,-0.18651,1.054,-0.30844,-0.67162
5,0.681281,12.7435,-0.19862,1.0578,-0.3756,-0.67892
5,0.660029,12.8496,-0.21051,1.0617,-0.44349,-0.6841
5,0.638828,12.9544,-0.22113,1.0653,-0.5119,-0.68212
5,0.617853,13.0579,-0.22966,1.0681,-0.58011,-0.66816
5,0.597435,13.1595,-0.23567,1.0699,-0.64693,-0.63754
5,0.577372,13.2598,-0.23939,1.0704,-0.71068,-0.59129
5,0.556391,13.3601,-0.24115,1.0696,-0.76981,-0.53244
5,0.53348,13.4622,-0.24111,1.0678,-0.82306,-0.4627
5,0.507787,13.5675,-0.23956,1.0653,-0.86933,-0.38423
5,0.478425,13.6763,-0.23668,1.0628,-0.90775,-0.29814
5,0.446026,13.7883,-0.23279,1.06,-0.93756,-0.20647
5,0.412696,13.9019,-0.2285,1.0564,-0.95821,-0.11503
5,0.380279,14.0156,-0.22473,1.0508,-0.96971,-0.031739
5,0.350223,14.128,-0.22225,1.0422,-0.97289,0.038177
5,0.323503,14.2385,-0.22143,1.0302,-0.96907,0.093954
5,0.299937,14.3465,-0.21831,1.0058,-0.95967,0.1264
5,0.278981,14.4523,-0.21555,0.97995,-0.94703,0.15744
5,0.260408,14.5563,-0.21208,0.95141,-0.93129,0.19246
5,0.243818,14.6593,-0.20691,0.91905,-0.91204,0.23738
5,0.228975,14.7619,-0.19899,0.88231,-0.88831,0.29915
5,0.215696,14.8635,-0.18852,0.84152,-0.85839,0.37483
5,0.203026,14.9624,-0.17681,0.79769,-0.82091,0.45331
5,0.189359,15.056,-0.16491,0.75204,-0.77558,0.52703
5,0.173353,15.1422,-0.15358,0.70547,-0.72287,0.58885
5,0.154572,15.2199,-0.14022,0.65024,-0.66399,0.59492
5,0.140756,15.2715,-0.1352,0.62758,-0.6045,0.33508
5,0.125298,15.32,-0.13107,0.60368,-0.57099,0.34953
5,0.109322,15.3651,-0.12786,0.57802,-0.53604,0.35478
5,0.0939709,15.4056,-0.12548,0.54977,-0.50056,0.3508
5,0.0804499,15.441,-0.12395,0.51804,-0.46548,0.33637
5,0.0689786,15.4713,-0.12332,0.48243,-0.43184,0.31026
5,0.0590668,15.4973,-0.12306,0.44347,-0.40081,0.27605
5,0.0504603,15.5196,-0.12192,0.40243,-0.37321,0.24169
5,0.0430536,15.5389,-0.11845,0.36067,-0.34904,0.21451
5,0.0430536,15.5389,-0.11845,0.36067,-0.32759,0.21451
6,-0.0224876,4.14003,-0.0098258,2.0493,0.29362,-0.29125
6,-0.0232758,4.35882,-0.010564,2.0483,0.26449,-0.33477
6,-0.023362,4.57689,-0.0095944,2.0416,0.23102,-0.32249
6,-0.0224066,4.79345,-0.0085492,2.0261,0.19877,-0.23173
6,-0.0209581,5.00677,-0.007757,1.9989,0.1756,-0.12916
6,-0.0203126,5.21579,-0.0083519,1.9579,0.16268,-0.075811
6,-0.0204368,5.42041,-0.010147,1.903,0.1551,-0.060929
6,-0.0213818,5.6205,-0.01131,1.837,0.14901,-0.075652
6,-0.0236509,5.81578,-0.010982,1.7637,0.14144,-0.10079
6,-0.0276471,6.00583,-0.0095851,1.6859,0.13136,-0.09903
6,-0.0326246,6.19029,-0.0083835,1.6052,0.12146,-0.064169
6,-0.0358211,6.36752,-0.0080542,1.5229,0.11504,-0.022865
6,-0.036886,6.53483,-0.0081832,1.4409,0.11276,0.0093213
6,-0.0373984,6.68966,-0.0084545,1.3612,0.11369,0.031579
6,-0.0377696,6.82967,-0.0084551,1.2856,0.11685,0.046522
6,-0.0389323,6.95297,-0.0076791,1.2136,0.1215,0.06369
6,-0.0406575,7.05878,-0.0065699,1.1438,0.12787,0.085724
6,-0.0416241,7.14869,-0.004856,1.0754,0.13644,0.11541
6,-0.0413971,7.22558,-0.0017073,1.0086,0.14798,0.15412
6,-0.0401958,7.29196,0.0032601,0.94464,0.16339,0.19848
6,-0.0392547,7.35037,0.0092779,0.88442,0.18324,0.24979
6,-0.0393843,7.40456,0.013986,0.82894,0.20822,0.30343
6,-0.0397284,7.45862,0.017,0.77938,0.23856,0.35277
6,-0.0393155,7.51594,0.019341,0.73688,0.27384,0.3869
6,-0.0378683,7.57794,0.021035,0.70249,0.31253,0.39719
6,-0.0356708,7.643,0.022265,0.67666,0.35225,0.39246
6,-0.0335765,7.7081,0.022914,0.659,0.39149,0.38171
6,-0.0310937,7.77129,0.022609,0.64813,0.42966,0.37212
6,-0.0270655,7.833,0.021388,0.64256,0.46688,0.36049
6,-0.021127,7.89511,0.019458,0.64124,0.50292,0.33663
6,-0.0140688,7.95913,0.017729,0.64268,0.53659,0.30031
6,-0.00784811,8.02541,0.01674,0.64391,0.56662,0.25791
6,-0.00288617,8.09358,0.015605,0.64146,0.59241,0.20934
6,0.00128452,8.16342,0.013443,0.6326,0.61334,0.15339
6,0.00430047,8.23465,0.010107,0.61668,0.62868,0.092055
6,0.00559775,8.30628,0.0065256,0.59613,0.63789,0.032631
6,0.0051705,8.37677,0.0039572,0.57466,0.64115,-0.021238
6,0.00359299,8.44495,0.0030565,0.55465,0.63903,-0.069154
6,0.00137979,8.5107,0.0039895,0.53605,0.63211,-0.10296
6,-0.00128032,8.57443,0.0065119,0.51737,0.62182,-0.12403
6,-0.00379684,8.63572,0.010678,0.49729,0.60941,-0.13946
6,-0.00590502,8.69238,0.016948,0.47567,0.59547,-0.15127
6,-0.00851773,8.74155,0.024846,0.45394,0.58034,-0.15783
6,-0.0124297,8.78114,0.034105,0.43396,0.56456,-0.14449
6,-0.0176534,8.8113,0.045449,0.41739,0.55011,-0.10137
6,-0.0226197,8.83527,0.059731,0.40641,0.53997,-0.028839
6,-0.0256621,8.85743,0.076863,0.40349,0.53709,0.067401
6,-0.0249807,8.88059,0.095701,0.40982,0.54383,0.17282
6,-0.0190864,8.90509,0.1156,0.42446,0.56111,0.2811
6,-0.00810312,8.92985,0.13641,0.44587,0.58922,0.39419
6,0.0072876,8.95371,0.15783,0.4731,0.62864,0.51276
6,0.026048,8.97674,0.17962,0.50648,0.67991,0.63274
6,0.0468065,9.00146,0.20204,0.54695,0.74319,0.75385
6,0.0694941,9.03133,0.22528,0.59503,0.81857,0.88225
6,0.0951993,9.06943,0.24955,0.64963,0.9068,1.0221
6,0.125059,9.1191,0.27361,0.7075,1.009,1.1586
6,0.158896,9.18376,0.29579,0.76477,1.1249,1.2779
6,0.194996,9.26458,0.31429,0.81913,1.2527,1.3732
6,0.232573,9.35963,0.32759,0.87061,1.39,1.4359
6,0.27153,9.46616,0.33582,0.92055,1.5336,1.4707
6,0.311866,9.58192,0.33968,0.97036,1.6806,1.4893
6,0.353343,9.70534,0.34017,1.0201,1.8296,1.5015
6,0.395552,9.83545,0.33864,1.0675,1.9797,1.513
6,0.438131,9.9712,0.33516,1.1089,2.131,1.5168
6,0.48145,10.1106,0.32892,1.1415,2.2827,1.5047
6,0.524605,10.2503,0.31912,1.1624,2.4332,1.4703
6,0.565926,10.387,0.30599,1.1688,2.5802,1.4123
6,0.603597,10.5188,0.291,1.1602,2.7214,1.3437
6,0.636091,10.6463,0.27453,1.139,2.8558,1.2722
6,0.663538,10.771,0.25643,1.1085,2.983,1.1957
6,0.686639,10.8944,0.23684,1.0718,3.1026,1.1117
6,0.706395,11.017,0.21605,1.0311,3.2137,1.0246
6,0.724081,11.1364,0.19429,0.98787,3.3162,0.93701
6,0.739817,11.2491,0.17181,0.9427,3.4099,0.84337
6,0.753047,11.3525,0.14857,0.89643,3.4943,0.73891
6,0.763306,11.4439,0.12508,0.85052,3.5681,0.63343
6,0.770872,11.5214,0.10223,0.80657,3.6315,0.53833
6,0.776987,11.585,0.080985,0.76541,3.6853,0.45674
6,0.781624,11.6376,0.06214,0.7268,3.731,0.38893
6,0.784394,11.6831,0.045675,0.6899,3.7699,0.32918
6,0.785541,11.7254,0.03127,0.65378,3.8028,0.26928
6,0.78545,11.7676,0.018314,0.61817,3.8297,0.20146
6,0.784137,11.8112,0.0059375,0.584,3.8499,0.11939
6,0.781748,11.8566,-0.0061112,0.55278,3.8618,0.024051
6,0.778587,11.9034,-0.017586,0.52588,3.8642,-0.076995
6,0.774761,11.9513,-0.028131,0.50457,3.8565,-0.17378
6,0.770385,12.0001,-0.03777,0.49005,3.8391,-0.25997
6,0.765567,12.0497,-0.04706,0.48235,3.8131,-0.33773
6,0.760371,12.0999,-0.055752,0.47965,3.7794,-0.40928
6,0.754887,12.1508,-0.063338,0.47924,3.7384,-0.47229
6,0.74918,12.202,-0.070278,0.47848,3.6912,-0.52758
6,0.743023,12.2533,-0.077415,0.47566,3.6385,-0.58144
6,0.735956,12.3044,-0.084938,0.4706,3.5803,-0.63603
6,0.727595,12.3547,-0.093155,0.46422,3.5167,-0.68854
6,0.717875,12.4042,-0.10272,0.4575,3.4479,-0.73905
6,0.707044,12.453,-0.11367,0.45084,3.374,-0.79217
6,0.695333,12.5015,-0.12569,0.44414,3.2947,-0.85069
6,0.682867,12.5497,-0.13859,0.43728,3.2097,-0.91296
6,0.67012,12.5969,-0.15223,0.43027,3.1184,-0.97643
6,0.657718,12.6416,-0.16656,0.42312,3.0207,-1.0389
6,0.644984,12.6824,-0.18145,0.41588,2.9168,-1.0976
6,0.63062,12.7189,-0.19614,0.40868,2.8071,-1.1476
6,0.614262,12.7524,-0.20965,0.40183,2.6923,-1.1838
6,0.595438,12.785,-0.22142,0.39565,2.5739,-1.2057
6,0.573153,12.8184,-0.23158,0.39026,2.4534,-1.217
6,0.547426,12.853,-0.24069,0.38565,2.3317,-1.2233
6,0.519008,12.8884,-0.24931,0.38212,2.2093,-1.2303
6,0.488379,12.9242,-0.25225,0.36989,2.0863,-1.2182
6,0.455919,12.9605,-0.25575,0.35964,1.9645,-1.2118
6,0.421775,12.997,-0.26038,0.35231,1.8433,-1.2131
6,0.386289,13.0338,-0.26572,0.3485,1.722,-1.2195
6,0.350733,13.0707,-0.27057,0.34783,1.6,-1.2245
6,0.316647,13.108,-0.27427,0.34846,1.4776,-1.2244
6,0.284763,13.146,-0.27602,0.34807,1.3551,-1.2168
6,0.254713,13.1847,-0.27445,0.34507,1.2335,-1.1969
6,0.225656,13.2243,-0.26927,0.33921,1.1138,-1.1624
6,0.196708,13.2657,-0.25506,0.32151,0.99755,-1.0942
6,0.178359,13.2895,-0.25236,0.31956,0.88813,-0.63485
6,0.158626,13.3162,-0.24835,0.31719,0.82464,-0.62289
6,0.136961,13.3462,-0.24287,0.31435,0.76235,-0.60612
6,0.113537,13.3794,-0.23588,0.31102,0.70174,-0.58372
6,0.0894789,13.4145,-0.2279,0.30712,0.64337,-0.55775
6,0.0657122,13.4493,-0.21983,0.30241,0.58759,-0.53178
6,0.0433926,13.4812,-0.21221,0.29645,0.53442,-0.50765
6,0.0242524,13.5086,-0.20486,0.28887,0.48365,-0.48462
6,0.00888742,13.5314,-0.19706,0.27914,0.43519,-0.46042
6,0.00888742,13.5314,-0.19706,0.27914,0.38915,-0.46042
7,-0.0374115,11.7492,0.061195,0.22956,-0.29257,0.50327
7,-0.0309363,11.7803,0.062753,0.28378,-0.24225,0.45484
7,-0.0232762,11.8218,0.066734,0.33007,-0.19676,0.41674
7,-0.0145833,11.8767,0.072245,0.36842,-0.15509,0.38448
7,-0.00610204,11.943,0.079187,0.39966,-0.11664,0.35605
7,0.00123017,12.0147,0.087128,0.42647,-0.081036,0.32978
7,0.00830937,12.0875,0.09627,0.45101,-0.048059,0.30661
7,0.0161664,12.1578,0.10666,0.47335,-0.017398,0.28957
7,0.0247327,12.2235,0.11554,0.492,0.011559,0.27684
7,0.0344781,12.2822,0.12038,0.50638,0.039243,0.26539
7,0.0462518,12.3337,0.12077,0.51865,0.065782,0.25849
7,0.0600194,12.3803,0.11723,0.52982,0.091631,0.26265
7,0.0756866,12.4246,0.11082,0.53861,0.1179,0.27806
7,0.0927672,12.4675,0.10215,0.54318,0.1457,0.2996
7,0.110951,12.5096,0.09209,0.54398,0.17566,0.32149
7,0.129469,12.5527,0.081639,0.54323,0.20781,0.34372
7,0.148501,12.5983,0.070467,0.54189,0.24218,0.36843
7,0.16818,12.6453,0.057604,0.54017,0.27903,0.3938
7,0.185881,12.6918,0.043521,0.5379,0.31841,0.41363
7,0.198406,12.7381,0.028515,0.53528,0.35977,0.41933
7,0.204135,12.7865,0.012876,0.53238,0.4017,0.41223
7,0.20353,12.8399,-0.0025035,0.52886,0.44293,0.39587
7,0.198358,12.8991,-0.017043,0.525,0.48251,0.37079
7,0.189709,12.963,-0.03013,0.52165,0.51959,0.34022
7,0.178079,13.031,-0.042793,0.51928,0.55361,0.30253
7,0.164509,13.1012,-0.055848,0.51655,0.58387,0.25374
7,0.149242,13.1713,-0.069591,0.51328,0.60924,0.19176
7,0.131374,13.2382,-0.083736,0.51236,0.62842,0.11828
7,0.111775,13.2993,-0.096294,0.51694,0.64025,0.041436
7,0.0915078,13.3528,-0.10561,0.5266,0.64439,-0.03064
7,0.0720033,13.3985,-0.11086,0.53774,0.64132,-0.094897
7,0.0550123,13.438,-0.11213,0.54666,0.63183,-0.15396
7,0.0416011,13.4746,-0.11093,0.5525,0.61644,-0.21644
7,0.0325069,13.5108,-0.10799,0.5571,0.5948,-0.28919
7,0.0253653,13.5482,-0.10301,0.56244,0.56588,-0.3699
7,0.0177725,13.5858,-0.096633,0.56973,0.52889,-0.45733
7,0.00931948,13.6248,-0.089241,0.57834,0.48315,-0.55154
7,0.000707626,13.67,-0.079979,0.58759,0.428,-0.64839
7,-0.00670628,13.7257,-0.068225,0.59839,0.36316,-0.73755
7,-0.0128133,13.7913,-0.053064,0.61314,0.2894,-0.80646
7,-0.0175759,13.862,-0.034606,0.63339,0.20876,-0.85475
7,-0.0207261,13.9332,-0.014684,0.6576,0.12328,-0.88685
7,-0.0235033,14.0041,0.0041338,0.68248,0.034598,-0.90153
7,-0.0262746,14.0772,0.020721,0.70515,-0.055555,-0.89638
7,-0.0279355,14.1558,0.037694,0.72418,-0.14519,-0.86326
7,-0.0287567,14.2407,0.057836,0.74024,-0.23152,-0.79514
7,-0.0292386,14.3279,0.081495,0.75352,-0.31103,-0.69416
7,-0.0285844,14.4134,0.10766,0.76222,-0.38045,-0.56382
7,-0.0246737,14.4961,0.13522,0.76423,-0.43683,-0.40974
7,-0.0146206,14.5791,0.16436,0.75996,-0.4778,-0.23713
7,0.00279086,14.6653,0.19546,0.75215,-0.50152,-0.048244
7,0.0256448,14.7532,0.22803,0.74351,-0.50634,0.15594
7,0.0498686,14.8395,0.26256,0.73455,-0.49075,0.37875
7,0.073949,14.9211,0.29845,0.72337,-0.45287,0.61847
7,0.100754,14.9966,0.33361,0.70748,-0.39103,0.86654
7,0.133445,15.0663,0.36763,0.68653,-0.30437,1.1196
7,0.172309,15.1319,0.40058,0.66393,-0.19241,1.3761
7,0.216029,15.1944,0.43171,0.64368,-0.054802,1.6316
7,0.26374,15.2542,0.45907,0.62707,0.10836,1.8731
7,0.315912,15.3112,0.47972,0.61212,0.29568,2.0835
7,0.37334,15.3663,0.49179,0.59655,0.50402,2.2568
7,0.435326,15.4203,0.49627,0.58078,0.7297,2.3947
7,0.50161,15.4732,0.49609,0.56663,0.96917,2.4948
7,0.57062,15.524,0.49252,0.55581,1.2187,2.5523
7,0.639293,15.5708,0.48397,0.54969,1.4739,2.5648
7,0.706502,15.6137,0.46769,0.54828,1.7304,2.5311
7,0.771921,15.6558,0.44301,0.55007,1.9835,2.4536
7,0.834832,15.7007,0.41147,0.55297,2.2288,2.3346
7,0.893471,15.7502,0.37475,0.55553,2.4623,2.1784
7,0.944811,15.8033,0.33365,0.55714,2.6801,1.9941
7,0.986375,15.8583,0.28835,0.55757,2.8795,1.7894
7,1.01819,15.9148,0.23962,0.55676,3.0585,1.5666
7,1.04204,15.9728,0.1871,0.55423,3.2151,1.3237
7,1.05899,16.0328,0.13217,0.54893,3.3475,1.0675
7,1.0687,16.0959,0.077562,0.53992,3.4543,0.80912
7,1.06883,16.1628,0.023791,0.52571,3.5352,0.55142
7,1.05832,16.232,-0.029287,0.50506,3.5903,0.29491
7,1.03896,16.3004,-0.081265,0.479,3.6198,0.042115
7,1.01324,16.3652,-0.13128,0.4494,3.624,-0.20038
7,0.983212,16.4255,-0.17773,0.41837,3.604,-0.42459
7,0.950044,16.4814,-0.21922,0.38724,3.5615,-0.62728
7,0.914562,16.5338,-0.25584,0.3556,3.4988,-0.80843
7,0.875812,16.5816,-0.28782,0.3229,3.418,-0.96427
7,0.834963,16.6218,-0.3159,0.28907,3.3215,-1.0946
7,0.794417,16.6506,-0.33995,0.2546,3.2121,-1.2018
7,0.754084,16.6651,-0.35745,0.22081,3.0919,-1.2813
7,0.713346,16.6659,-0.36695,0.1896,2.9638,-1.3302
7,0.672301,16.6587,-0.36968,0.16199,2.8307,-1.3507
7,0.630909,16.649,-0.36779,0.13752,2.6957,-1.3483
7,0.589348,16.6401,-0.36298,0.11505,2.5608,-1.3317
7,0.547925,16.6328,-0.35624,0.092441,2.4277,-1.3075
7,0.50651,16.626,-0.34862,0.067833,2.2969,-1.278
7,0.466391,16.6186,-0.33937,0.041908,2.1691,-1.2397
7,0.4272,16.6109,-0.3284,0.019119,2.0451,-1.1918
7,0.388803,16.6051,-0.31672,0.00505,1.926,-1.1374
7,0.353932,16.6045,-0.30399,0.0042567,1.8122,-1.0766
7,0.324426,16.6112,-0.28949,0.018006,1.7046,-1.0085
7,0.299595,16.6243,-0.27299,0.035345,1.6037,-0.94294
7,0.277658,16.6403,-0.25574,0.055616,1.5094,-0.87529
7,0.257247,16.6556,-0.23796,0.075411,1.4219,-0.8067
7,0.237557,16.6663,-0.21984,0.093234,1.3412,-0.73746
7,0.21732,16.6694,-0.20118,0.11021,1.2675,-0.66779
7,0.197078,16.6655,-0.18267,0.12742,1.2007,-0.59992
7,0.17816,16.6601,-0.16374,0.14444,1.1407,-0.53074
7,0.160983,16.6607,-0.14405,0.15828,1.0876,-0.45858
7,0.146102,16.6736,-0.12569,0.16407,1.0418,-0.38993
7,0.13437,16.7019,-0.11093,0.16069,1.0028,-0.33709
7,0.126321,16.7294,-0.1037,0.16224,0.96907,-0.23279
7,0.119433,16.7603,-0.097279,0.1624,0.94579,-0.21439
7,0.113427,16.7909,-0.090994,0.16294,0.92436,-0.19622
7,0.108238,16.8193,-0.084376,0.16642,0.90473,-0.17678
7,0.104146,16.8464,-0.076509,0.17543,0.88706,-0.15356
7,0.101055,16.8734,-0.067515,0.19081,0.8717,-0.12742
7,0.0997297,16.8998,-0.058157,0.20964,0.85896,-0.10268
7,0.100698,16.9217,-0.048689,0.22654,0.84869,-0.082554
7,0.102556,16.9326,-0.039587,0.2354,0.84043,-0.06892
7,0.102556,16.9326,-0.039587,0.2354,0.83354,-0.06892
8,0.147469,12.9679,-0.099236,0.6195,0.20435,-0.90351
8,0.119233,13.0407,-0.080706,0.6019,0.114,-0.74926
8,0.0932283,13.1112,-0.059376,0.57951,0.039072,-0.56861
8,0.072966,13.179,-0.036531,0.55271,-0.017789,-0.36598
8,0.060955,13.2435,-0.013959,0.52217,-0.054387,-0.15593
8,0.0563492,13.3031,0.0078723,0.48917,-0.06998,0.049702
8,0.0576194,13.3561,0.029263,0.45488,-0.06501,0.24644
8,0.0661989,13.4024,0.050381,0.41999,-0.040366,0.437
8,0.0831941,13.4434,0.071234,0.38458,0.0033337,0.62823
8,0.107112,13.4803,0.091933,0.34845,0.066157,0.82091
8,0.13602,13.5126,0.11271,0.31213,0.14825,1.0051
8,0.168279,13.5393,0.13276,0.27722,0.24876,1.1689
8,0.202258,13.5592,0.14968,0.24481,0.36565,1.3005
8,0.234988,13.5722,0.16046,0.21478,0.49569,1.3829
8,0.263617,13.5795,0.16295,0.18645,0.63398,1.4073
8,0.287959,13.5832,0.1576,0.15981,0.77471,1.3811
8,0.309124,13.5855,0.14594,0.13577,0.91282,1.3208
8,0.327817,13.5875,0.12792,0.11465,1.0449,1.2341
8,0.344374,13.5894,0.10347,0.095751,1.1683,1.1155
8,0.359229,13.5908,0.073696,0.078528,1.2799,0.96386
8,0.372887,13.5921,0.03973,0.063226,1.3762,0.78364
8,0.384752,13.5951,0.0027861,0.050831,1.4546,0.58213
8,0.392594,13.6008,-0.035002,0.042446,1.5128,0.37037
8,0.393895,13.6086,-0.070272,0.038734,1.5499,0.16347
8,0.386863,13.6164,-0.10067,0.039493,1.5662,-0.025448
8,0.371544,13.6227,-0.1262,0.044076,1.5637,-0.1928
8,0.349499,13.6277,-0.14748,0.051988,1.5444,-0.33799
8,0.322048,13.6317,-0.16469,0.06333,1.5106,-0.46229
8,0.290126,13.6349,-0.17793,0.078511,1.4644,-0.56945
8,0.254504,13.6373,-0.18795,0.097387,1.4074,-0.66221
8,0.21548,13.6391,-0.19574,0.11882,1.3412,-0.74016
8,0.173851,13.641,-0.20092,0.14101,1.2672,-0.79909
8,0.132253,13.6441,-0.20188,0.16259,1.1873,-0.83395
8,0.0944442,13.6497,-0.19813,0.18337,1.1039,-0.84241
8,0.062271,13.6584,-0.19018,0.20436,1.0196,-0.82608
8,0.0355497,13.6713,-0.17878,0.22688,0.93702,-0.78873
8,0.0141546,13.6895,-0.16459,0.25119,0.85814,-0.73797
8,-0.00155744,13.7142,-0.1479,0.27669,0.78435,-0.6795
8,-0.0114889,13.7465,-0.129,0.3027,0.7164,-0.61081
8,-0.0166645,13.7856,-0.10843,0.32905,0.65532,-0.5298
8,-0.0185901,13.8298,-0.085899,0.35597,0.60234,-0.43642
8,-0.0170902,13.8771,-0.060631,0.38321,0.55869,-0.32962
8,-0.0111636,13.926,-0.033627,0.40971,0.52573,-0.21231
8,-0.00236485,13.9753,-0.0073124,0.43406,0.5045,-0.093086
8,0.00650671,14.0251,0.016879,0.45495,0.49519,0.02001
8,0.0139775,14.0765,0.038859,0.47094,0.49719,0.12528
8,0.0203159,14.13,0.059214,0.48059,0.50972,0.22603
8,0.026257,14.1851,0.077936,0.48257,0.53232,0.32275
8,0.0321195,14.2403,0.094319,0.47637,0.5646,0.41217
8,0.0376407,14.2954,0.10865,0.46276,0.60582,0.49141
8,0.0436824,14.351,0.12197,0.44297,0.65496,0.55868
8,0.0525896,14.4074,0.13378,0.41867,0.71082,0.61109
8,0.0649992,14.4635,0.14281,0.39221,0.77193,0.64619
8,0.0798194,14.5178,0.15041,0.36624,0.83655,0.67438
8,0.0960283,14.5684,0.15908,0.342,0.90399,0.70838
8,0.113268,14.6132,0.16928,0.31863,0.97483,0.7466
8,0.132583,14.6506,0.17958,0.29486,1.0495,0.7824
8,0.154314,14.6793,0.18891,0.27066,1.1277,0.81309
8,0.177149,14.6992,0.19716,0.24678,1.209,0.83582
8,0.200645,14.7111,0.2049,0.22346,1.2926,0.85126
8,0.225348,14.7157,0.21139,0.2,1.3777,0.86044
8,0.25047,14.7145,0.21443,0.17604,1.4638,0.85718
8,0.274464,14.7104,0.2135,0.15264,1.5495,0.83558
8,0.29846,14.7078,0.20942,0.13191,1.6331,0.79366
8,0.324668,14.7091,0.20331,0.11641,1.7124,0.7381
8,0.352535,14.7137,0.1959,0.10824,1.7862,0.67492
8,0.379485,14.7197,0.18582,0.10878,1.8537,0.59612
8,0.404069,14.7264,0.17183,0.11889,1.9133,0.49569
8,0.426448,14.7339,0.15456,0.13808,1.9629,0.37594
8,0.447436,14.7423,0.13472,0.16531,2.0005,0.24577
8,0.466469,14.751,0.11238,0.20007,2.0251,0.11783
8,0.481452,14.7595,0.088197,0.24133,2.0369,-0.0024738
8,0.491991,14.7688,0.063171,0.28636,2.0366,-0.11603
8,0.498657,14.7816,0.036899,0.33122,2.025,-0.23285
8,0.502657,14.8012,0.0085456,0.373,2.0017,-0.35962
8,0.505059,14.8297,-0.020682,0.41164,1.9658,-0.48453
8,0.504229,14.8682,-0.048363,0.44861,1.9173,-0.59482
8,0.497974,14.9171,-0.073078,0.48501,1.8578,-0.68725
8,0.486272,14.9754,-0.094545,0.52119,1.7891,-0.76061
8,0.470089,15.0417,-0.11294,0.55722,1.713,-0.81628
8,0.450108,15.1159,-0.12806,0.59344,1.6314,-0.85698
8,0.426865,15.1971,-0.13923,0.63018,1.5457,-0.88307
8,0.400806,15.2832,-0.14668,0.6668,1.4574,-0.89472
8,0.372259,15.3702,-0.15061,0.70141,1.3679,-0.88822
8,0.341759,15.4551,-0.15159,0.73107,1.2791,-0.8652
8,0.31117,15.537,-0.15061,0.75328,1.1926,-0.8313
8,0.282759,15.617,-0.14731,0.76638,1.1095,-0.78459
8,0.257913,15.6964,-0.14094,0.76965,1.031,-0.72283
8,0.237358,15.7762,-0.13195,0.76401,0.95873,-0.64701
8,0.221552,15.8568,-0.12155,0.75088,0.89403,-0.56416
8,0.210357,15.9379,-0.1104,0.73122,0.83761,-0.48316
8,0.202992,16.0198,-0.0967,0.70054,0.7893,-0.3992
8,0.198636,16.1024,-0.080818,0.66639,0.74938,-0.30993
8,0.197428,16.1845,-0.062877,0.63083,0.71838,-0.21163
8,0.199469,16.2633,-0.043081,0.59564,0.69722,-0.10573
8,0.203843,16.3362,-0.022193,0.56142,0.68665,-0.0018975
8,0.209607,16.401,-0.0012042,0.52777,0.68646,0.092012
9,0.0469448,13.7964,-0.040074,0.20169,0.28899,-0.53021
9,0.0362959,13.8116,-0.04475,0.2365,0.23597,-0.52888
9,0.0240774,13.8305,-0.049205,0.27232,0.18308,-0.51873
9,0.0118766,13.8554,-0.054848,0.31481,0.13121,-0.50732
9,0.000796158,13.8883,-0.059997,0.35578,0.080478,-0.49423
9,-0.00904167,13.929,-0.064685,0.39359,0.031055,-0.48488
9,-0.0178383,13.9761,-0.068951,0.42672,-0.017434,-0.47898
9,-0.0258921,14.0284,-0.071394,0.45491,-0.065331,-0.46958
9,-0.0333445,14.0848,-0.070296,0.4793,-0.11229,-0.4465
9,-0.0402861,14.1447,-0.065419,0.50161,-0.15694,-0.40244
9,-0.0468054,14.2073,-0.057416,0.52304,-0.19718,-0.33869
9,-0.0529882,14.2723,-0.046953,0.54333,-0.23105,-0.26489
9,-0.0588797,14.3395,-0.034934,0.56065,-0.25754,-0.18887
9,-0.0645169,14.4085,-0.022977,0.57247,-0.27643,-0.11553
9,-0.0697069,14.4779,-0.012355,0.57699,-0.28798,-0.046271
9,-0.0744743,14.5458,-0.003291,0.574,-0.29261,0.019539
9,-0.0788394,14.6105,0.0044836,0.56458,-0.29065,0.07963
9,-0.0813976,14.6713,0.011297,0.55006,-0.28269,0.13406
9,-0.080434,14.7293,0.017328,0.53146,-0.26928,0.18026
9,-0.0757146,14.786,0.022713,0.50951,-0.25126,0.21231
9,-0.0678882,14.8424,0.027549,0.48479,-0.23003,0.22604
9,-0.0576098,14.8983,0.031944,0.45774,-0.20742,0.22094
9,-0.04579,14.9518,0.035976,0.42864,-0.18533,0.19951
9,-0.034077,15.0004,0.039686,0.39789,-0.16538,0.16748
9,-0.0239133,15.0423,0.043018,0.36624,-0.14863,0.13507
9,-0.0156237,15.077,0.046019,0.3349,-0.13513,0.11607
9,-0.00887116,15.1053,0.048632,0.30491,-0.12352,0.11583
9,-0.00329817,15.1285,0.05009,0.27657,-0.11194,0.12665
9,0.00131222,15.1478,0.049559,0.24939,-0.09927,0.13598
9,0.00513942,15.1637,0.046974,0.22255,-0.085673,0.13405
9,0.00829239,15.1769,0.042691,0.19556,-0.072268,0.12064
9,0.0109008,15.1878,0.037061,0.16866,-0.060204,0.099878
9,0.0130718,15.1968,0.030561,0.14277,-0.050216,0.074479
9,0.0148546,15.2042,0.024018,0.11914,-0.042768,0.047938
9,0.0163295,15.2104,0.018185,0.098771,-0.037974,0.022856
9,0.0175628,15.2156,0.013234,0.081921,-0.035689,-0.00036087
9,0.0184251,15.2203,0.0089938,0.06814,-0.035725,-0.022033
9,0.0187831,15.2245,0.0053015,0.056673,-0.037928,-0.042276
9,0.0186844,15.2281,0.002089,0.047075,-0.042156,-0.058844
9,0.0182343,15.2311,-0.0011148,0.039569,-0.04804,-0.07012
9,0.0174933,15.2336,-0.0047063,0.035208,-0.055052,-0.075262
9,0.0165118,15.2356,-0.0085132,0.035155,-0.062578,-0.073134
9,0.0153313,15.2373,-0.0124,0.040369,-0.069892,-0.064225
9,0.0139599,15.2387,-0.016799,0.051402,-0.076314,-0.052852
9,0.0124568,15.2398,-0.022012,0.067755,-0.081599,-0.045241
9,0.0108448,15.2408,-0.027614,0.088252,-0.086124,-0.046532
9,0.00911637,15.2416,-0.032893,0.11176,-0.090777,-0.057107
9,0.0073048,15.2419,-0.037221,0.13768,-0.096487,-0.072582
9,0.00549026,15.2419,-0.040427,0.16569,-0.10375,-0.087566
9,0.00290986,15.2428,-0.042683,0.19514,-0.1125,-0.098283
9,-0.00112013,15.2473,-0.044333,0.22486,-0.12233,-0.10419
9,-0.0061256,15.2581,-0.045705,0.25349,-0.13275,-0.10445
9,-0.0117274,15.2775,-0.046695,0.28014,-0.14319,-0.095914
9,-0.018744,15.307,-0.046553,0.3046,-0.15279,-0.073609
9,-0.0276943,15.3459,-0.044724,0.32711,-0.16015,-0.033525
9,-0.0376652,15.3921,-0.041349,0.3481,-0.1635,0.021711
9,-0.0473616,15.4438,-0.036727,0.36808,-0.16133,0.085434
9,-0.0556596,15.4999,-0.031074,0.38754,-0.15278,0.15174
9,-0.0621689,15.5595,-0.024634,0.40645,-0.13761,0.21554
9,-0.0671327,15.6214,-0.016812,0.4237,-0.11606,0.27668
9,-0.0711733,15.6833,-0.0070643,0.43696,-0.088388,0.33752
9,-0.0748977,15.7426,0.0040997,0.44426,-0.054636,0.39794
9,-0.0780577,15.7976,0.016567,0.44439,-0.014841,0.45843
9,-0.0791452,15.8479,0.031395,0.43686,0.031002,0.52354
9,-0.0769912,15.894,0.048985,0.42267,0.083356,0.59536
9,-0.0718531,15.937,0.06823,0.40346,0.14289,0.67036
9,-0.0643382,15.9777,0.087783,0.38063,0.20993,0.74369
9,-0.0548441,16.017,0.10653,0.35478,0.2843,0.8114
9,-0.0437784,16.0548,0.12399,0.32639,0.36544,0.87229
9,-0.030715,16.0902,0.13981,0.29792,0.45267,0.92629
9,-0.0152487,16.1212,0.15339,0.27344,0.54529,0.96928
9,0.00207385,16.1466,0.16491,0.25681,0.64222,0.99596
9,0.0214058,16.1663,0.1742,0.25094,0.74182,1
9,0.0440453,16.1808,0.17928,0.25514,0.84182,0.9696
9,0.0702767,16.1912,0.17883,0.26581,0.93878,0.89634
9,0.098795,16.1991,0.17378,0.2796,1.0284,0.7879
9,0.128205,16.2051,0.16581,0.29358,1.1072,0.66217
9,0.157392,16.2094,0.15578,0.30662,1.1734,0.5317
9,0.185801,16.2123,0.14418,0.31984,1.2266,0.40393
9,0.212489,16.2172,0.13107,0.33475,1.267,0.28254
9,0.235607,16.2302,0.11637,0.35194,1.2952,0.16784
9,0.254916,16.2562,0.10028,0.37049,1.312,0.058646
9,0.27035,16.2995,0.082077,0.38918,1.3179,-0.049134
9,0.279407,16.3582,0.061063,0.40789,1.313,-0.15936
9,0.280661,16.4257,0.037768,0.42712,1.297,-0.27147
9,0.275709,16.4962,0.013213,0.4469,1.2699,-0.38287
9,0.267282,16.5649,-0.012267,0.46631,1.2316,-0.49228
9,0.256718,16.6302,-0.038499,0.4847,1.1824,-0.59904
9,0.244583,16.6945,-0.065221,0.50235,1.1225,-0.70246
9,0.231424,16.7597,-0.090783,0.51784,1.0522,-0.79749
9,0.217498,16.8251,-0.11265,0.52789,0.97247,-0.8751
9,0.202634,16.8876,-0.13058,0.52863,0.88496,-0.93207
9,0.18556,16.9447,-0.14491,0.51557,0.79176,-0.96699
9,0.16617,16.9965,-0.15398,0.48969,0.69506,-0.97224
9,0.145813,17.0455,-0.15685,0.45719,0.59783,-0.94308
9,0.12522,17.0929,-0.15503,0.42358,0.50353,-0.88725
9,0.10367,17.1377,-0.15091,0.39329,0.4148,-0.8205
9,0.0803934,17.1788,-0.14503,0.36725,0.33275,-0.74996
9,0.0553591,17.217,-0.13695,0.3431,0.25776,-0.67456
9,0.0309241,17.2529,-0.12654,0.31925,0.1903,-0.59365
9,0.0103149,17.286,-0.11382,0.29667,0.13093,-0.50919
9,-0.00624758,17.3135,-0.098879,0.2778,0.080016,-0.42236
9,-0.0194622,17.3306,-0.081102,0.26356,0.03778,-0.33041
10,0.267269,12.5648,-0.0053357,0.87439,-0.29384,0.97603
10,0.264407,12.6529,-0.026157,0.88489,-0.19623,0.74004
10,0.254497,12.7418,-0.045423,0.88183,-0.12223,0.52788
10,0.238626,12.8319,-0.063006,0.86393,-0.069443,0.33911
10,0.220442,12.924,-0.078888,0.83384,-0.035531,0.17127
10,0.20274,13.0183,-0.092908,0.79379,-0.018404,0.022742
10,0.185963,13.1106,-0.10505,0.74767,-0.01613,-0.10929
10,0.170387,13.1991,-0.11542,0.69983,-0.027059,-0.22629
10,0.156184,13.2873,-0.12349,0.65335,-0.049688,-0.32432
10,0.141974,13.3768,-0.12906,0.60805,-0.082119,-0.40374
10,0.126941,13.4637,-0.13207,0.56166,-0.12249,-0.47025
10,0.111582,13.543,-0.13021,0.51364,-0.16952,-0.51633
10,0.0959548,13.6101,-0.12126,0.46435,-0.22115,-0.5297
10,0.0801046,13.661,-0.10629,0.41358,-0.27412,-0.51215
10,0.0640571,13.6944,-0.088931,0.36052,-0.32534,-0.48016
10,0.0486887,13.7093,-0.072373,0.30564,-0.37335,-0.45385
10,0.0350141,13.7098,-0.056878,0.25298,-0.41874,-0.43977
10,0.0232539,13.7042,-0.04171,0.20594,-0.46271,-0.43373
10,0.0139331,13.6986,-0.026575,0.16444,-0.50609,-0.42842
10,0.00720933,13.6942,-0.011008,0.12824,-0.54893,-0.41269
10,0.00312111,13.6882,0.0050623,0.098667,-0.5902,-0.37793
10,0.00397717,13.6802,0.021371,0.077222,-0.62799,-0.31779
10,0.011977,13.6706,0.03787,0.064805,-0.65977,-0.22935
10,0.0260447,13.6591,0.054526,0.064036,-0.6827,-0.11644
10,0.0425788,13.6451,0.071327,0.077206,-0.69435,0.015773
10,0.0579943,13.6296,0.08741,0.10599,-0.69277,0.1593
10,0.072208,13.6166,0.10164,0.14718,-0.67684,0.30708
10,0.0869676,13.611,0.11377,0.19375,-0.64613,0.45255
10,0.103034,13.6161,0.12375,0.23997,-0.60088,0.58623
10,0.119958,13.6333,0.13165,0.28421,-0.54226,0.70403
10,0.137065,13.661,0.13759,0.32855,-0.47185,0.80781
10,0.154324,13.6974,0.14053,0.37333,-0.39107,0.8903
10,0.171694,13.7397,0.13941,0.41871,-0.30204,0.93631
10,0.189157,13.7891,0.13497,0.46462,-0.20841,0.94103
10,0.20671,13.8488,0.12911,0.50979,-0.11431,0.91682
10,0.223508,13.9212,0.12394,0.55272,-0.022625,0.88749
10,0.238287,14.0042,0.11955,0.59215,0.066123,0.86577
10,0.250802,14.0917,0.11424,0.62643,0.1527,0.8445
10,0.261432,14.1785,0.10656,0.65467,0.23715,0.81243
10,0.270516,14.2626,0.096777,0.67647,0.31839,0.76517
10,0.278306,14.3453,0.085872,0.69189,0.39491,0.70358
10,0.285028,14.4268,0.074041,0.70206,0.46527,0.62843
10,0.290799,14.508,0.061449,0.70861,0.52811,0.54014
10,0.295981,14.5883,0.048229,0.71109,0.58213,0.43919
10,0.300808,14.6646,0.034456,0.70783,0.62604,0.32701
10,0.305868,14.735,0.020601,0.69773,0.65875,0.20865
10,0.311303,14.8009,0.007691,0.68226,0.67961,0.091535
10,0.315445,14.8638,-0.003805,0.66515,0.68876,-0.014765
10,0.316159,14.9255,-0.014145,0.65004,0.68729,-0.10418
10,0.313513,14.9862,-0.023402,0.63883,0.67687,-0.17711
10,0.30881,15.0448,-0.031712,0.63121,0.65916,-0.23464
10,0.302405,15.1015,-0.038857,0.62684,0.63569,-0.27589
10,0.294592,15.1569,-0.04436,0.62423,0.60811,-0.29733
10,0.285615,15.2113,-0.048826,0.62288,0.57837,-0.29946
10,0.275622,15.2645,-0.052258,0.62534,0.54843,-0.28386
10,0.26471,15.3167,-0.053939,0.63299,0.52004,-0.25702
10,0.253669,15.3687,-0.053078,0.64329,0.49434,-0.22764
10,0.243192,15.422,-0.047951,0.65342,0.47158,-0.19155
10,0.233143,15.4786,-0.036931,0.66076,0.45242,-0.13971
10,0.223711,15.5402,-0.020852,0.66416,0.43845,-0.073042
10,0.214881,15.6077,-0.002173,0.66384,0.43114,0.00084613
10,0.207314,15.6805,0.017912,0.65932,0.43123,0.074176
10,0.20208,15.7564,0.03949,0.65125,0.43865,0.14405
10,0.198329,15.8341,0.063389,0.64144,0.45305,0.21651
10,0.196292,15.9153,0.090379,0.63174,0.4747,0.29786
10,0.19799,16.001,0.12027,0.62238,0.50449,0.38603
10,0.205146,16.0875,0.15173,0.61247,0.54309,0.47296
10,0.219543,16.1707,0.1838,0.60058,0.59039,0.55338
10,0.242298,16.247,0.21643,0.58481,0.64573,0.6307
10,0.27181,16.3145,0.24935,0.56369,0.7088,0.7116
10,0.304464,16.3725,0.28185,0.53699,0.77996,0.79593
10,0.338229,16.4202,0.31182,0.50608,0.85955,0.8763
10,0.373573,16.4594,0.33726,0.47434,0.94718,0.94426
10,0.412393,16.4941,0.35901,0.44487,1.0416,1.0021
10,0.456381,16.528,0.37756,0.41834,1.1418,1.0509
10,0.505247,16.5615,0.39205,0.39549,1.2469,1.0895
10,0.557124,16.5937,0.40159,0.37848,1.3559,1.1235
10,0.610794,16.6232,0.40421,0.36889,1.4682,1.1495
10,0.666012,16.6482,0.39908,0.36748,1.5832,1.1625
10,0.72242,16.6676,0.38819,0.37463,1.6994,1.168
10,0.778574,16.6817,0.37486,0.39129,1.8162,1.1728
10,0.830952,16.6927,0.36102,0.41838,1.9335,1.1805
10,0.876599,16.7051,0.34626,0.45407,2.0515,1.1913
10,0.916349,16.7238,0.32819,0.49372,2.1707,1.1948
10,0.951404,16.752,0.304,0.53246,2.2901,1.1793
10,0.98209,16.792,0.27306,0.56846,2.4081,1.1447
10,1.00832,16.8444,0.23544,0.60219,2.5226,1.0931
10,1.02796,16.9084,0.19186,0.63531,2.6319,1.0235
10,1.04046,16.982,0.14413,0.67028,2.7342,0.93203
10,1.04818,17.0638,0.09307,0.70871,2.8274,0.81105
10,1.05419,17.1551,0.04018,0.75044,2.9085,0.66325
10,1.06026,17.2569,-0.01105,0.79327,2.9748,0.50649
10,1.06609,17.3676,-0.058005,0.83296,3.0255,0.35845
10,1.06877,17.4816,-0.10134,0.86488,3.0613,0.22005
10,1.06437,17.5929,-0.14277,0.88563,3.0833,0.083564
10,1.05137,17.6984,-0.18369,0.89285,3.0917,-0.05633
10,1.02801,17.798,-0.2245,0.88579,3.0861,-0.20273
10,0.994515,17.8938,-0.26334,0.86539,3.0658,-0.35075
10,0.954274,17.9888,-0.29832,0.83323,3.0307,-0.49347
10,0.908559,18.085,-0.32909,0.79041,2.9814,-0.63103
10,0.858935,18.1825,-0.35647,0.73681,2.9183,-0.76387
10,0.808852,18.2792,-0.38184,0.67261,2.8419,-0.8919
10,0.760589,18.371,-0.40651,0.6002,2.7527,-1.0178
10,0.713674,18.4535,-0.42972,0.52459,2.6509,-1.1379
10,0.66586,18.5233,-0.44841,0.45154,2.5371,-1.2425
10,0.614708,18.5777,-0.46049,0.38411,2.4129,-1.326
10,0.559323,18.616,-0.46381,0.32163,2.2803,-1.3821
10,0.501276,18.6392,-0.4582,0.26139,2.1421,-1.4086
10,0.443819,18.6484,-0.4466,0.20067,2.0012,-1.4104
10,0.389995,18.6446,-0.43125,0.14626,1.8602,-1.3895
10,0.341256,18.6287,-0.41282,0.088781,1.7212,-1.3477
10,0.296579,18.6021,-0.39319,0.029181,1.5864,-1.295
10,0.253064,18.568,-0.37351,-0.030054,1.4569,-1.2399
10,0.209327,18.5308,-0.35316,-0.085772,1.3329,-1.1817
10,0.16755,18.496,-0.33022,-0.13526,1.2148,-1.1126
10,0.130396,18.4666,-0.30287,-0.17677,1.1035,-1.027
10,0.100384,18.4413,-0.27053,-0.20995,1.0008,-0.92449
10,0.0781224,18.4166,-0.23367,-0.23527,0.90836,-0.80673
10,0.0610748,18.3901,-0.20494,-0.23989,0.82768,-0.71273
10,0.0460598,18.3775,-0.18739,-0.25049,0.75641,-0.50548
10,0.0332851,18.3601,-0.17073,-0.25556,0.70586,-0.46756
10,0.0224622,18.3376,-0.15449,-0.25499,0.65911,-0.42985
10,0.0135699,18.3109,-0.13695,-0.24956,0.61612,-0.38863
10,0.00735434,18.282,-0.11692,-0.24141,0.57726,-0.34042
10,0.00542315,18.2527,-0.095433,-0.23378,0.54322,-0.28777
10,0.00897729,18.2241,-0.074194,-0.22918,0.51444,-0.23538
10,0.0182622,18.1961,-0.055366,-0.22719,0.4909,-0.18961
10,0.0339444,18.1687,-0.040162,-0.2254,0.47194,-0.15446
10,0.0339444,18.1687,-0.040162,-0.2254,0.45649,-0.15446
11,0.00362364,1.53131,1.15E-05,-0.0031081,0.069608,-0.015976
11,0.00362836,1.53085,1.40E-05,-0.003486,0.068011,-0.020712
11,0.00362326,1.53044,1.55E-05,-0.0036964,0.065939,-0.023203
11,0.00361204,1.53006,3.66E-05,-0.0037743,0.063619,-0.023563
11,0.00361593,1.52972,3.23E-05,-0.0038111,0.061263,-0.023925
11,0.00362973,1.5294,2.01E-05,-0.0039867,0.05887,-0.024258
11,0.00363344,1.52912,1.10E-05,-0.0042682,0.056444,-0.023691
11,0.0036302,1.52886,-0.0003054,-0.0040664,0.054075,-0.033873
11,0.00362223,1.52862,-0.00098851,-0.0020802,0.050688,-0.057094
11,0.00362497,1.52841,-0.0014851,0.0028794,0.044979,-0.071934
11,0.00363518,1.52821,-0.0014143,0.011516,0.037785,-0.094823
11,0.00363905,1.52748,-0.0011366,0.025289,0.028303,-0.083368
11,0.00364226,1.52688,-0.00088252,0.043419,0.019966,-0.073455
11,0.00367123,1.52641,-0.00064254,0.065016,0.012621,-0.06433
11,0.00366888,1.52598,-0.00043743,0.089339,0.0061878,-0.056807
11,0.00365377,1.52533,-0.00053628,0.11636,0.00050714,-0.059383
11,0.00364127,1.52449,-0.0010091,0.14692,-0.0054312,-0.073922
11,0.00310445,1.5244,-0.0013707,0.18209,-0.012823,-0.084349
11,0.00184432,1.52757,-0.0012263,0.22274,-0.021258,-0.079445
11,0.000801853,1.53679,-0.00081537,0.26923,-0.029203,-0.067769
11,0.000794969,1.55435,-0.00043991,0.32101,-0.03598,-0.058064
11,0.00135524,1.58143,-8.75E-05,0.37729,-0.041786,-0.046571
11,0.00185821,1.61727,0.00022374,0.43686,-0.046443,-0.037621
11,0.00232696,1.66009,0.00022458,0.49958,-0.050205,-0.03718
11,0.00274107,1.70839,-0.00013668,0.56628,-0.053923,-0.034827
11,0.00255717,1.76212,-0.00038289,0.63821,-0.057406,-0.015395
11,0.00161532,1.82297,-0.00011933,0.71607,-0.058946,0.0094453
11,0.000888807,1.89305,0.00096082,0.79913,-0.058001,0.034505
11,0.00116963,1.9741,0.0028218,0.8843,-0.054551,0.069333
11,0.00199423,2.06687,0.0045653,0.96782,-0.047617,0.098165
11,0.00275536,2.17022,0.0053496,1.0466,-0.037801,0.10012
11,0.00346401,2.28205,0.0053667,1.1192,-0.027788,0.085989
11,0.00408973,2.4006,0.0051373,1.1873,-0.019189,0.070173
11,0.00412038,2.52557,0.0051252,1.2534,-0.012172,0.06783
11,0.00339552,2.65855,0.005747,1.32,-0.0053892,0.086233
11,0.00288799,2.80175,0.0073143,1.3873,0.0032341,0.11767
11,0.00340261,2.95663,0.0096638,1.453,0.015001,0.14925
11,0.00502608,3.12266,0.011812,1.514,0.029926,0.16689
11,0.00748789,3.29617,0.01297,1.5675,0.046616,0.16458
11,0.0099325,3.47243,0.013322,1.6127,0.063074,0.15051
11,0.0114942,3.64751,0.013384,1.6514,0.078125,0.13634
11,0.0120885,3.81991,0.013645,1.6867,0.091759,0.12656
11,0.0121327,3.99181,0.014526,1.7212,0.10442,0.12486
11,0.0125773,4.16693,0.016314,1.7554,0.1169,0.1417
11,0.014235,4.34833,0.018873,1.7872,0.13107,0.16142
11,0.0171857,4.53667,0.021214,1.8133,0.14721,0.1534
11,0.020943,4.72898,0.022525,1.8314,0.16255,0.12777
11,0.0245119,4.92097,0.022727,1.8414,0.17533,0.11154
11,0.027109,5.10909,0.022125,1.8466,0.18648,0.10184
11,0.028639,5.29224,0.021475,1.8511,0.19667,0.092829
11,0.0295229,5.47305,0.021182,1.8586,0.20595,0.09013
11,0.0307543,5.65553,0.020688,1.8699,0.21497,0.088377
11,0.0331419,5.84301,0.01874,1.8825,0.2238,0.077274
11,0.0367491,6.03639,0.014029,1.8929,0.23153,0.032724
11,0.0411416,6.2329,0.0062688,1.8976,0.2348,-0.047691
11,0.045315,6.42836,-0.0039154,1.8955,0.23003,-0.13597
11,0.0484517,6.61947,-0.015815,1.8885,0.21644,-0.21605
11,0.0504806,6.80553,-0.028174,1.881,0.19483,-0.29192
11,0.0517379,6.98928,-0.039667,1.8767,0.16564,-0.36296
11,0.0528833,7.17467,-0.049229,1.8771,0.12934,-0.41865
11,0.0538572,7.36462,-0.056592,1.8807,0.087479,-0.45902
11,0.0534651,7.55961,-0.063079,1.8839,0.041577,-0.49446
11,0.0496134,7.75689,-0.069774,1.8832,-0.0078686,-0.53299
11,0.0406358,7.95269,-0.076833,1.8768,-0.061168,-0.58301
11,0.0267727,8.14355,-0.083621,1.8662,-0.11947,-0.63663
11,0.00935493,8.32757,-0.088367,1.8538,-0.18313,-0.66424
11,-0.0106876,8.50604,-0.089089,1.8421,-0.24956,-0.6526
11,-0.0318353,8.683,-0.084197,1.8312,-0.31482,-0.61267
11,-0.0522259,8.86243,-0.07351,1.8193,-0.37608,-0.55244
11,-0.0698183,9.04646,-0.058556,1.8042,-0.43133,-0.47423
11,-0.0836613,9.23443,-0.039761,1.7848,-0.47875,-0.37785
11,-0.0954028,9.42325,-0.015875,1.7619,-0.51653,-0.25589
11,-0.106406,9.60935,0.014546,1.7379,-0.54212,-0.10008
11,-0.116917,9.79008,0.051934,1.7151,-0.55213,0.095229
11,-0.1261,9.9652,0.095295,1.6953,-0.54261,0.31842
11,-0.131419,10.136,0.14297,1.6797,-0.51077,0.55369
11,-0.129726,10.3036,0.19401,1.6684,-0.4554,0.80183
11,-0.117914,10.468,0.24722,1.6593,-0.37521,1.064
11,-0.0952828,10.6279,0.30095,1.6502,-0.26881,1.3308
11,-0.0642282,10.783,0.35306,1.6393,-0.13573,1.5898
11,-0.0256654,10.9342,0.40228,1.626,0.02325,1.8371
11,0.021715,11.0834,0.44967,1.6115,0.20696,2.0768
11,0.0787062,11.2328,0.49613,1.5975,0.41464,2.3119
11,0.144504,11.383,0.54206,1.5857,0.64583,2.5462
11,0.217363,11.5341,0.58708,1.5766,0.90045,2.7761
11,0.295288,11.687,0.62839,1.5697,1.1781,2.9764
11,0.377337,11.8428,0.66146,1.5642,1.4757,3.1181
11,0.4626,12.0016,0.68193,1.5598,1.7875,3.1912
11,0.549668,12.1628,0.68852,1.5567,2.1066,3.2029
11,0.636306,12.3251,6.84E-01,1.5542,2.4269,3.1642
11,0.720904,12.4865,6.69E-01,1.5509,2.7433,3.0793
11,0.803947,12.6462,6.43E-01,1.5439,3.0513,2.9465
11,0.88586,12.8043,6.06E-01,1.5306,3.3459,2.7692
11,0.967207,12.9615,5.60E-01,1.5096,3.6229,2.5564
11,1.04806,13.1185,5.05E-01,1.4805,3.8785,2.3162
11,1.12536,13.2754,4.45E-01,1.4428,4.1101,2.0513
11,1.19319,13.432,0.37943,1.3953,4.3152,1.758
11,1.24595,13.5876,0.31,1.3376,4.491,1.4364
11,1.28176,13.7413,0.23712,1.27,4.6347,1.0904
11,1.30292,13.8915,0.16249,1.1933,4.7437,0.72282
11,1.31154,14.036,0.087531,1.1096,4.816,0.33632
11,1.30727,14.1713,0.012223,1.0206,4.8496,-0.06357
11,1.29088,14.294,-0.063457,0.92735,4.8433,-0.47246
11,1.26408,14.4022,-0.13962,0.83044,4.796,-0.88855
11,1.2279,14.4952,-0.21636,0.73013,4.7072,-1.3082
11,1.18465,14.5726,-0.2918,0.62688,4.5764,-1.7163
11,1.13621,14.6334,-0.36154,0.52143,4.4047,-2.0876
11,1.0826,14.6769,-0.42123,0.41461,4.196,-2.405
11,1.02391,14.7028,-0.46918,0.30727,3.9555,-2.6681
11,0.961294,14.7118,-0.50704,0.20055,3.6887,-2.8856
11,0.895966,14.7057,-5.37E-01,0.096273,3.4001,-3.0657
11,0.828392,14.6873,-0.5584,-0.002368,3.0935,-3.2095
11,0.758946,14.659,-0.57189,-0.091506,2.7726,-3.3222
11,0.687965,14.6224,-0.57862,-0.16839,2.4403,-3.4131
11,0.615346,14.5788,-0.57926,-0.23168,2.099,-3.4825
11,0.541765,14.5292,-0.57502,-0.28123,1.7508,-3.5248
11,0.470115,14.4749,-0.5667,-0.31776,1.3983,-3.5341
11,0.403496,14.4169,-0.55409,-0.34256,1.0449,-3.5071
11,0.343409,14.3559,-0.53708,-0.35713,0.69419,-3.4443
11,0.288844,14.2926,-0.51605,-0.3627,0.34976,-3.345
11,0.237808,14.2285,-0.49175,-0.36065,0.015252,-3.2092
11,0.190467,14.1666,-0.46482,-0.35232,-0.30567,-3.0411
11,0.147104,14.111,-0.43569,-0.33888,-0.60978,-2.846
12,-0.0232258,13.2236,-0.133,0.44255,0.21243,-0.94492
12,-0.0498549,13.2582,-0.11916,0.36504,0.11794,-0.89843
12,-0.0719897,13.2793,-0.10165,0.27931,0.028098,-0.82611
12,-0.0881558,13.2891,-0.08118,0.18921,-0.054513,-0.72107
12,-0.095462,13.2924,-0.058175,0.098165,-0.12662,-0.57972
12,-0.0923455,13.2916,-0.033109,0.0067066,-0.18459,-0.40693
12,-0.080883,13.2854,-0.0065809,-0.081676,-0.22529,-0.21165
12,-0.0654908,13.2708,0.020991,-0.16019,-0.24645,-0.00072905
12,-0.0494404,13.2456,0.047829,-0.22441,-0.24652,0.21801
12,-0.0331351,13.2094,0.071643,-0.27001,-0.22472,0.43112
12,-0.0160004,13.1637,0.092502,-0.29764,-0.18161,0.62816
12,0.00191262,13.1103,0.11056,-0.31153,-0.11879,0.80146
12,0.0204827,13.0505,0.12495,-0.31358,-0.038649,0.94781
12,0.0394911,12.9851,0.13447,-0.30647,0.056132,1.0661
12,0.0590068,12.9152,0.1379,-0.29451,0.16274,1.1479
12,0.0788632,12.8411,0.13522,-0.28037,0.27753,1.1795
12,0.0985277,12.7687,0.12752,-0.26425,0.39548,1.1525
12,0.11781,12.7066,0.11668,-0.24515,0.51073,1.0798
12,0.135656,12.6604,0.10487,-0.22205,0.6187,0.99004
12,0.150197,12.6348,0.093166,-0.19342,0.71771,0.9058
12,0.161778,12.6283,0.081891,-0.15874,0.80829,0.83183
12,0.171267,12.6351,0.071063,-0.11991,0.89147,0.75942
12,0.177919,12.6521,0.060795,-0.079485,0.96741,0.68201
12,0.180776,12.6762,0.051492,-0.038662,1.0356,0.59579
12,0.180337,12.7034,0.04246,0.0028227,1.0952,0.49118
12,0.178104,12.7308,0.033665,0.045335,1.1443,0.36637
12,0.174151,12.7569,0.025797,0.084716,1.1809,0.22768
12,0.167867,12.7805,0.018801,0.11514,1.2037,0.077882
12,0.160299,12.8015,0.013059,0.1329,1.2115,-0.079516
12,0.153196,12.8226,0.0099742,0.13514,1.2036,-0.23264
12,0.147781,12.8462,0.0096465,0.12293,1.1803,-0.36533
12,0.144038,12.8705,0.011383,0.099837,1.1438,-0.47023
12,0.142073,12.8915,0.015372,0.068259,1.0967,-0.54981
12,0.142475,12.9078,0.021858,0.030533,1.0418,-0.6082
12,0.143926,12.9208,0.030422,-0.010034,0.98093,-0.64477
12,0.146193,12.9317,0.040047,-0.049629,0.91646,-0.65612
12,0.150121,12.9381,0.050799,-0.084754,0.85084,-0.63641
12,0.155411,12.9369,0.063459,-0.11215,0.7872,-0.5857
12,0.161774,12.9262,0.077229,-0.13,0.72863,-0.51773
12,0.170145,12.9051,0.090253,-0.1407,0.67686,-0.45092
12,0.181071,12.8741,0.099947,-0.14733,0.63177,-0.39956
12,0.194032,12.8348,0.10516,-0.14901,0.59181,-0.36044
12,0.208663,12.7886,0.10616,-0.14291,0.55577,-0.32669
12,0.224492,12.7372,0.10352,-0.1281,0.5231,-0.29874
12,0.24118,12.6833,0.099127,-0.10702,0.49322,-0.26891
12,0.258197,12.6316,0.09287,-0.082615,0.46633,-0.23497
12,0.27575,12.5874,0.083785,-0.054544,0.44284,-0.20185
12,0.294785,12.5562,0.07236,-0.021458,0.42265,-0.16944
12,0.314757,12.5414,0.059085,0.017285,0.40571,-0.13714
12,0.333702,12.5411,0.043713,0.062071,0.39199,-0.10978
12,0.347676,12.5516,0.026166,0.1125,0.38101,-0.095822
12,0.354366,12.5724,0.0068657,0.16803,0.37143,-0.097922
12,0.354386,12.6057,-0.014076,0.22741,0.36164,-0.11441
12,0.349507,12.6516,-0.035994,0.28805,0.3502,-0.14114
12,0.342179,12.7068,-0.057272,0.34701,0.33609,-0.17219
12,0.331932,12.7665,-0.07577,0.40156,0.31887,-0.19998
12,0.31769,12.829,-0.089934,0.4495,0.29887,-0.22014
12,0.30013,12.894,-0.099506,0.48832,0.27686,-0.23266
12,0.279944,12.9608,-0.10538,0.51572,0.25359,-0.23603
12,0.257571,13.0292,-0.10758,0.53294,0.22999,-0.22013
12,0.233403,13.0991,-0.10286,0.54343,0.20797,-0.16536
12,0.207763,13.1709,-0.088979,0.54913,0.19144,-0.070586
12,0.180511,13.2434,-0.067246,0.55025,0.18438,0.045257
12,0.152504,13.3134,-0.04031,0.54682,0.18891,0.16913
12,0.126636,13.3774,-0.010288,0.54063,0.20582,0.29887
12,0.106658,13.4347,0.023255,0.53432,0.23571,0.44039
12,0.0958819,13.4864,0.061028,0.52903,0.27974,0.59737
12,0.0957728,13.5328,0.1023,0.52481,0.33948,0.76665
12,0.104001,13.5729,0.14636,0.52149,0.41615,0.94494
12,0.118547,13.607,0.19273,0.51878,0.51064,1.132
12,0.141965,13.6384,0.241,0.51651,0.62384,1.3288
12,0.176409,13.6707,0.29085,0.51412,0.75673,1.535
12,0.219895,13.7062,0.34238,0.51221,0.91023,1.7511
12,0.268887,13.7453,0.39481,0.51364,1.0853,1.9723
12,0.321604,13.788,0.44529,0.52089,1.2826,2.1845
12,0.378443,13.8351,0.48929,0.5342,1.501,2.3681
12,0.439745,13.8871,0.52258,0.55256,1.7378,2.5077
12,0.504726,13.9436,0.54354,0.57573,1.9886,2.6004
12,0.572659,14.0038,0.55389,0.605,2.2486,2.6486
12,0.643033,14.0668,0.55493,0.63969,2.5135,2.6434
12,0.715413,14.1322,0.54468,0.6766,2.7778,2.5675
12,0.789454,14.1991,0.52167,0.71214,3.0346,2.4238
12,0.865262,14.2678,0.48806,0.74401,3.277,2.2417
12,0.942126,14.3406,0.44713,0.77202,3.5011,2.0455
12,1.01722,14.4191,0.40052,0.79657,3.7057,1.8352
12,1.08525,14.5031,0.34862,0.81789,3.8892,1.6016
12,1.14104,14.5915,0.29201,0.83614,4.0494,1.3432
12,1.18285,14.6843,0.23174,0.85196,4.1837,1.0668
12,1.21178,14.7829,0.16845,0.86626,4.2904,0.77791
12,1.22841,14.8864,0.10257,0.8797,4.3682,0.4783
12,1.23132,14.9916,0.034592,0.89234,4.416,0.16971
12,1.21975,15.095,-0.034712,0.90367,4.433,-0.14508
12,1.19602,15.1942,-0.10552,0.91206,4.4185,-0.46656
12,1.16315,15.2893,-0.1782,0.91521,4.3718,-0.79524
12,1.12264,15.3812,-0.25171,0.91223,4.2923,-1.1222
12,1.07569,15.4709,-0.32226,0.90414,4.1801,-1.4274
12,1.02377,15.5594,-0.38541,0.89204,4.0373,-1.6947
12,0.968211,15.6475,-0.43941,0.87544,3.8678,-1.922
12,0.909559,15.7363,-0.48422,0.85252,3.6756,-2.1098
12,0.848166,15.8262,-0.51959,0.82296,3.4647,-2.2513
12,0.784597,15.9168,-0.5443,0.78907,3.2395,-2.3373
12,0.720031,16.0064,-0.55759,0.7545,3.0058,-2.3696
12,0.654218,16.092,-0.56068,0.72233,2.7688,-2.3626
12,0.585717,16.171,-0.55556,0.69407,2.5326,-2.3296
12,0.513793,16.2436,-0.5437,0.67029,2.2996,-2.2737
12,0.440735,16.3114,-0.52644,0.65016,2.0723,-2.1923
12,0.370215,16.3756,-0.50506,0.63163,1.853,-2.0859
12,0.304031,16.4352,-0.48051,0.6127,1.6444,-1.9611
12,0.243343,16.4879,-0.45454,0.57302,1.4483,-1.8349
12,0.189228,16.5323,-0.42662,0.53106,1.2648,-1.6993
12,0.142723,16.5698,-0.39718,0.48726,1.0949,-1.5565
12,0.104567,16.604,-0.36734,0.44361,0.93925,-1.4107
12,0.0746594,16.6389,-0.33677,0.40382,0.79818,-1.2602
12,0.052037,16.6775,-0.30362,0.37146,0.67216,-1.0971
12,0.0352437,16.7218,-0.26673,0.34763,0.56246,-0.92236
12,0.0228121,16.7712,-0.22754,0.33055,0.47022,-0.7508
12,0.0136597,16.8226,-0.18895,0.31788,0.39514,-0.59438
12,0.00719381,16.8729,-0.15586,0.28807,0.3357,-0.46784
12,0.000482164,16.8823,-0.13212,0.27549,0.28892,-0.36021
12,-0.00508289,16.8883,-0.10939,0.26611,0.2529,-0.28755
12,-0.00975351,16.8914,-0.088474,0.25973,0.22414,-0.22009
12,-0.0146499,16.8937,-0.070156,0.25458,0.20213,-0.15938
12,-0.0193215,16.8996,-0.054894,0.24829,0.1862,-0.1067
12,-0.0215136,16.914,-0.042657,0.23848,0.17553,-0.062391
12,-0.0196598,16.9388,-0.03302,0.22274,0.16929,-0.025656
12,-0.0143367,16.9725,-0.025412,0.20007,0.16672,0.0027904
13,0.0190696,13.2061,-0.013094,0.63368,-0.04552,-0.022226
13,0.0172018,13.2607,-0.013488,0.68304,-0.047743,-0.023578
13,0.0154033,13.3197,-0.014618,0.71935,-0.050101,-0.023816
13,0.0140004,13.3832,-0.016663,0.74803,-0.052482,-0.025097
13,0.0128893,13.4505,-0.019092,0.77342,-0.054992,-0.030376
13,0.0117162,13.5196,-0.021579,0.79852,-0.058029,-0.041033
13,0.0105266,13.5885,-0.024635,0.8248,-0.062133,-0.059159
13,0.00933452,13.6556,-0.028474,0.8518,-0.068049,-0.082044
13,0.00816361,13.7201,-0.032274,0.87826,-0.076253,-0.10355
13,0.00704259,13.7817,-0.035264,0.90268,-0.086608,-0.12045
13,0.00597602,13.8398,-0.037147,0.92369,-0.098653,-0.1765
13,0.00423305,13.9575,-0.039202,0.95981,-0.1163,-0.19972
13,0.0015276,14.0694,-0.040816,0.98958,-0.13628,-0.2229
13,-0.00259269,14.1786,-0.042325,1.0125,-0.15857,-0.24564
13,-0.00765968,14.2889,-0.043624,1.0298,-0.18313,-0.26634
13,-0.0132993,14.4039,-0.044388,1.0433,-0.20976,-0.28529
13,-0.0203471,14.5258,-0.044804,1.0549,-0.23829,-0.30311
13,-0.0293363,14.6542,-0.044802,1.0658,-0.2686,-0.31951
13,-0.0390236,14.787,-0.044372,1.0768,-0.30055,-0.33446
13,-0.0479326,14.9212,-0.043617,1.0883,-0.334,-0.34835
13,-0.0552238,15.0535,-0.042594,1.1011,-0.36883,-0.36092
13,-0.0612029,15.1803,-0.041022,1.0835,-0.40493,-0.37226
13,-0.0662283,15.2988,-0.038418,1.0679,-0.44215,-0.38449
13,-0.0706489,15.4082,-0.034237,1.0513,-0.4806,-0.39238
13,-0.0743585,15.51,-0.028975,1.0307,-0.51984,-0.38804
13,-0.0770589,15.6062,-0.023022,1.0031,-0.55864,-0.36675
13,-0.0790823,15.6982,-0.015558,0.96676,-0.59532,-0.3227
13,-0.0802691,15.7872,-0.0060723,0.92231,-0.62759,-0.25511
13,-0.0805798,15.8736,0.0043215,0.8716,-0.6531,-0.17358
13,-0.0801918,15.9583,0.014203,0.81716,-0.67046,-0.090629
13,-0.0792127,16.0419,0.022635,0.76175,-0.67952,-0.012211
13,-0.0778105,16.1245,0.02988,0.70829,-0.68074,0.062201
13,-0.075308,16.2051,0.036275,0.6591,-0.67452,0.13267
13,-0.071066,16.2812,0.041947,0.61489,-0.66125,0.19871
13,-0.0656087,16.3503,0.046804,0.57499,-0.64138,0.25937
13,-0.0593436,16.4101,0.050894,0.53881,-0.61545,0.31506
13,-0.0514624,16.4593,0.054515,0.50608,-0.58394,0.36864
13,-0.041481,16.4988,0.057254,0.47621,-0.54708,0.42034
13,-0.0303807,16.5302,0.058888,0.44816,-0.50504,0.46791
13,-0.0195261,16.5556,0.059292,0.42114,-0.45825,0.50846
13,-0.00995415,16.577,0.058632,0.39557,-0.4074,0.54256
13,-0.00144326,16.5969,0.057639,0.37276,-0.35315,0.57458
13,0.00632146,16.617,0.056021,0.35397,-0.29569,0.60579
13,0.0132452,16.638,0.053209,0.34041,-0.23511,0.62929
13,0.0192493,16.66,0.049513,0.33288,-0.17218,0.63682
13,0.0247297,16.6838,0.045179,0.33193,-0.1085,0.62507
13,0.0299479,16.7104,0.039843,0.33779,-0.045994,0.59246
13,0.0342385,16.7396,0.033297,0.34973,0.013251,0.53669
13,0.0371956,16.77,0.026065,0.36672,0.066921,0.46244
13,0.0383916,16.8006,0.018746,0.38801,0.11316,0.38134
13,0.0380517,16.8331,0.012001,0.41317,0.1513,0.30275
13,0.0374678,16.87,0.0058343,0.44152,0.18157,0.22924
13,0.0367346,16.913,-3.01E-05,0.47168,0.2045,0.16054
13,0.0353515,16.962,-0.0054279,0.50222,0.22055,0.097766
13,0.0334176,17.016,-0.010433,0.53201,0.23033,0.040749
13,0.0310149,17.0739,-0.015468,0.56016,0.2344,-0.011482
13,0.0282243,17.1349,-0.020542,0.5864,0.23325,-0.062568
13,0.0251129,17.1983,-0.02501,0.61177,0.227,-0.11367
13,0.0217492,17.2637,-0.027659,0.63833,0.21563,-0.15811
13,0.0179662,17.3316,-0.02656,0.66739,0.19982,-0.185
13,0.0140469,17.4034,-0.02086,0.69797,0.18132,-0.19172
13,0.0102254,17.48,-0.011512,0.72724,0.16215,-0.18389
13,0.00626117,17.5604,0.00063077,0.75244,0.14376,-0.16483
13,0.00238937,17.6425,0.014513,0.77181,0.12727,-0.13609
13,-0.00161653,17.724,0.028814,0.78444,0.11367,-0.098903
13,-0.00620721,17.8041,0.041987,0.79017,0.10378,-0.057723
13,-0.0111369,17.8832,0.053576,0.7901,0.098003,-0.016872
13,-0.015781,17.9632,0.064868,0.78678,0.096316,0.027319
13,-0.0181225,18.0466,0.076933,0.78267,0.099048,0.078235
13,-0.014729,18.1354,0.091041,0.77834,0.10687,0.13708
13,-0.00366915,18.229,0.10661,0.77251,0.12058,0.20082
13,0.0144436,18.3245,0.12199,0.76378,0.14066,0.26392
13,0.0379961,18.4179,0.13755,0.7528,0.16705,0.32971
13,0.0643773,18.5057,0.15431,0.74201,0.20002,0.40067
13,0.0910453,18.5849,0.17267,0.73282,0.24009,0.47424
13,0.114989,18.6543,0.1919,0.72415,0.28752,0.54658
13,0.135376,18.7151,0.21101,0.71368,0.34217,0.61471
13,0.154848,18.7718,0.22989,0.69982,0.40364,0.68027
13,0.175616,18.829,0.2477,0.68214,0.47167,0.74067
13,0.200049,18.8882,0.26143,0.6604,0.54574,0.78458
13,0.227276,18.9484,0.26862,0.63463,0.6242,0.80413
13,0.254197,19.0075,0.26916,0.60612,0.70461,0.79977
13,0.281351,19.066,0.26458,0.57779,0.78459,0.77601
13,0.311015,19.1265,0.2577,0.55291,0.86219,0.74109
13,0.343715,19.1897,0.25096,0.53348,0.9363,0.70255
13,0.377597,19.2524,0.24796,0.52036,1.0066,0.67165
13,0.410879,19.3106,0.25024,0.5128,1.0737,0.65484
13,0.443993,19.3628,0.2551,0.50816,1.1392,0.64543
13,0.477284,19.4109,0.26005,0.50328,1.2037,0.63799
13,0.508141,19.4562,0.26259,0.49616,1.2675,0.6271
13,0.533563,19.4983,0.26327,0.48701,1.3303,0.61211
13,0.552764,19.5367,0.26492,0.47724,1.3915,0.59829
13,0.567162,19.5735,0.267,0.4668,1.4513,0.57812
13,0.57977,19.6115,0.2671,0.45359,1.5091,0.54498
13,0.592964,19.6519,0.26473,0.43718,1.5636,0.50435
13,0.610908,19.695,0.26176,0.42068,1.614,0.46516
13,0.635848,19.7407,0.25953,0.40799,1.6606,0.43555
13,0.665048,19.7882,0.25666,0.39986,1.7041,0.41181
13,0.695719,19.8355,0.25055,0.39324,1.7453,0.38432
13,0.725226,19.8806,0.24108,0.38489,1.7837,0.35373
13,0.753808,19.9224,0.22969,0.37384,1.8191,0.32655
13,0.784035,19.962,0.21721,0.36025,1.8517,0.30219
13,0.815345,19.9996,0.20366,0.3438,1.882,0.27672
13,0.845221,20.0337,0.18819,0.32463,1.9096,0.24599
13,0.873175,20.064,0.16999,0.30529,1.9342,0.20437
13,0.901118,20.0938,0.14719,0.2885,1.9547,0.14585
13,0.929946,20.1265,0.1195,0.27551,1.9693,0.070846
13,0.95731,20.1625,0.089601,0.26691,1.9763,-0.012733
13,0.978393,20.1974,0.06041,0.26299,1.9751,-0.097938
13,0.990294,20.226,0.03401,0.26374,1.9653,-0.18026
13,0.99294,20.246,0.010005,0.26791,1.9473,-0.25937
13,0.987179,20.2572,-0.013684,0.27334,1.9213,-0.34142
13,0.97449,20.2611,-0.037716,0.27876,1.8872,-0.42687
13,0.956147,20.2607,-0.061415,0.28383,1.8445,-0.51243
13,0.932945,20.2624,-0.085495,0.28768,1.7932,-0.60209
13,0.905287,20.272,-0.11175,0.28833,1.733,-0.7024
13,0.874851,20.2917,-0.1401,0.28429,1.6628,-0.81632
13,0.84425,20.322,-0.1682,0.27642,1.5812,-0.93862
13,0.816539,20.3615,-0.19207,0.26832,1.4873,-1.0573
13,0.793246,20.4081,-0.20854,0.26473,1.3816,-1.1652
13,0.773818,20.4582,-0.21607,0.26838,1.2651,-1.2619
13,0.756667,20.5087,-0.21432,0.27877,1.1389,-1.3399
13,0.739912,20.5571,-0.20414,0.29391,1.0049,-1.3898
13,0.722392,20.6013,-0.18653,0.31133,0.86591,-1.4046
13,0.702186,20.6394,-0.16347,0.32771,0.72545,-1.3792
13,0.677612,20.6704,-0.13793,0.33964,0.58752,-1.3189
13,0.649741,20.6951,-0.114,0.34383,0.45564,-1.2374
13,0.620906,20.7153,-0.095138,0.33709,0.3319,-1.1458
13,0.594262,20.734,-0.083963,0.31801,0.21732,-1.0554
13,0.57322,20.7555,-0.081076,0.28823,0.11179,-0.97592
13,0.5608,20.7827,-0.073103,0.25694,0.014194,-0.93526
13,0.558542,20.8148,-0.068556,0.22384,-0.079332,-0.89568
14,0.0202069,12.4273,0.0022993,0.48571,-0.13292,-0.056306
14,0.0209567,12.4858,0.001763,0.50181,-0.13855,-0.065505
14,0.021479,12.5438,0.0013788,0.51672,-0.1451,-0.070085
14,0.021863,12.6001,0.0011118,0.53061,-0.15211,-0.068466
14,0.0221287,12.6537,0.00091814,0.54352,-0.15896,-0.060571
14,0.0222926,12.7044,0.001146,0.55487,-0.16501,-0.046677
14,0.0224009,12.752,0.0018333,0.56324,-0.16968,-0.028347
14,0.0224691,12.7965,0.0023164,0.5675,-0.17251,-0.0084663
14,0.0225084,12.8381,0.0021887,0.56732,-0.17336,0.009985
14,0.022513,12.8769,1.77E-03,0.56294,-0.17236,0.025154
14,0.0225062,12.913,0.0013368,0.55509,-0.16985,-0.0032403
14,0.0221462,12.9793,0.00050611,0.5427,-0.17017,0.014586
14,0.0218614,13.0474,-0.00041516,0.52782,-0.16871,0.030649
14,0.0216522,13.1171,-0.0014428,0.51242,-0.16565,0.041548
14,0.0214923,13.1882,-0.0024578,0.49824,-0.16149,0.047139
14,0.021926,13.2596,-0.0034472,0.48664,-0.15678,0.053955
14,0.0231403,13.3285,-0.0044166,0.47866,-0.15138,0.066418
14,0.0241448,13.3921,-0.0052737,0.47503,-0.14474,0.081641
14,0.0241466,13.4485,-0.0060466,0.47597,-0.13658,0.095874
14,0.023569,13.4969,-0.0068496,0.48127,-0.12699,0.10882
14,0.0228806,13.5375,-0.0076864,0.4903,-0.11611,0.1211
14,0.0219689,13.5712,-0.0083791,0.48596,-0.104,0.13855
14,0.0206487,13.5995,-0.0091825,0.48216,-0.090143,0.15285
14,0.0189774,13.6249,-0.010328,0.47984,-0.074858,0.15935
14,0.0172131,13.6502,-0.011439,0.48063,-0.058923,0.15708
14,0.0153981,13.6777,-0.012162,0.48644,-0.043215,0.14769
14,0.0135676,13.7093,-0.012068,0.49981,-0.028446,0.13436
14,0.0119217,13.7466,-0.010536,0.52298,-0.01501,0.11926
14,0.0104153,13.7901,-0.0076372,0.55629,-0.0030842,0.10349
14,0.00881371,13.8394,-0.0039686,0.59819,0.007265,0.089958
14,0.00713339,13.8936,-0.00019669,0.64673,0.016261,0.079899
14,0.00538794,13.9512,0.0032989,0.7007,0.024251,0.073083
14,0.00349647,14.0117,0.006625,0.75925,0.031559,0.072773
14,0.000997225,14.0768,0.0098701,0.82073,0.038836,0.083635
14,-0.00138622,14.1495,0.012936,0.88249,0.0472,0.10421
14,-0.00239716,14.2325,0.015723,0.94137,0.05762,0.12552
14,-0.000995961,14.3281,0.018147,0.99434,0.070172,0.14045
14,0.00307198,14.438,0.020212,1.0395,0.084217,0.14933
14,0.00887223,14.5611,0.022117,1.0765,0.099149,0.15526
14,0.0156317,14.6932,0.024213,1.1065,0.11468,0.16053
14,0.0224872,14.8309,0.026454,1.1312,0.13073,0.16498
14,0.0285666,14.9726,0.028807,1.1521,0.14723,0.16861
14,0.0338986,15.118,0.031354,1.1697,0.16409,0.17317
14,0.0387176,15.2664,0.034539,1.1824,0.18141,0.18215
14,0.043086,15.4151,0.037642,1.1872,0.19962,0.1946
14,0.0468446,15.5604,0.039399,1.1814,0.21908,0.20545
14,0.0498618,15.698,0.03876,1.1629,0.23963,0.20995
14,0.0523448,15.8255,0.035468,1.13,0.26062,0.20788
14,0.0546489,15.9431,0.03046,1.0835,0.28141,0.20224
14,0.0572395,16.0525,0.024528,1.0272,0.30163,0.19361
14,0.0600406,16.1561,0.018613,0.9651,0.32099,0.18483
14,0.0630029,16.2554,0.013641,0.89895,0.33948,0.1769
14,0.0662038,16.3511,0.0096591,0.82888,0.35717,0.16178
14,0.0700758,16.4415,0.0063849,0.75501,0.37334,0.13178
14,0.0738976,16.5238,0.0036369,0.6789,0.38652,0.088924
14,0.0764012,16.5953,0.0015477,0.60354,0.39542,0.045503
14,0.0765244,16.654,0.00022083,0.53248,0.39997,0.011128
14,0.0740071,16.698,-0.00064651,0.46816,0.40108,-0.013642
14,0.0697924,16.728,-0.0014562,0.41074,0.39971,-0.031479
14,0.0646867,16.7477,-0.0029223,0.35853,0.39657,-0.048364
14,0.0597128,16.7611,-0.0047867,0.30927,0.39173,-0.066246
14,0.055848,16.7705,-0.005967,0.26157,0.38511,-0.083707
14,0.0532168,16.7757,-0.0055813,0.21539,0.37673,-0.098788
14,0.0514875,16.7764,-0.0027483,0.17179,0.36686,-0.10722
14,0.0503597,16.7729,0.0036098,0.13181,0.35613,-0.10494
14,0.04994,16.7675,0.012845,0.095424,0.34564,-0.09141
14,0.0503035,16.763,0.0239,0.062279,0.3365,-0.068337
14,0.0510518,16.7618,0.035645,0.032127,0.32967,-0.040698
14,0.0517366,16.7646,0.04623,0.0040911,0.3256,-0.015283
14,0.0513949,16.7696,0.05523,-0.023255,0.32407,0.0060301
14,0.0504673,16.7746,0.062676,-0.051156,0.32467,0.022456
14,0.0510688,16.7786,0.068335,-0.079943,0.32692,0.034154
14,0.0550412,16.7819,0.072359,-0.10913,0.33033,0.045765
14,0.0645792,16.7851,0.075095,-0.13814,0.33491,0.061281
14,0.0811172,16.7874,0.076642,-0.16688,0.34104,0.079332
14,0.10209,16.7862,0.077467,-0.19549,0.34897,0.09582
14,0.124324,16.7785,0.079091,-0.22408,0.35855,0.11164
14,0.145297,16.7623,0.083119,-0.25286,0.36972,0.13124
14,0.162252,16.7362,0.091012,-0.28118,0.38284,0.15949
14,0.175147,16.7012,0.10466,-0.30717,0.39879,0.20696
14,0.185064,16.6588,0.12287,-0.32927,0.41948,0.27399
14,0.192518,16.6106,0.14121,-0.34761,0.44688,0.34885
14,0.197934,16.5575,0.15614,-0.36348,0.48177,0.42031
14,0.201678,16.5001,0.1647,-0.37675,0.5238,0.47503
14,0.203643,16.4392,0.16522,-0.38524,0.5713,0.50477
14,0.204874,16.3765,0.16058,-0.38533,0.62178,0.51455
14,0.208485,16.3148,0.15413,-0.37439,0.67324,0.51218
14,0.21729,16.2561,0.14881,-0.35142,0.72445,0.50813
14,0.233761,16.2022,0.14795,-0.31672,0.77527,0.51512
14,0.26072,16.1552,0.15151,-0.27257,0.82678,0.53396
14,0.296198,16.1161,0.15858,-0.22167,0.88017,0.562
14,0.333484,16.0834,0.16935,-0.16607,0.93637,0.60045
14,0.367331,16.0549,0.18315,-0.10682,0.99642,0.64742
14,0.393989,16.0316,0.1982,-0.04434,1.0612,0.69788
14,0.411567,16.0169,0.21296,0.020711,1.1309,0.74793
14,0.423253,16.0155,0.22538,0.086714,1.2057,0.79133
14,0.432591,16.0298,0.23268,0.15094,1.2849,0.81848
14,0.442923,16.0594,0.2327,0.21082,1.3667,0.82158
14,0.458156,16.1028,0.22309,0.26589,1.4489,0.79301
14,0.478168,16.1561,0.20222,0.31665,1.5282,0.7259
14,0.502225,16.2155,0.17295,0.36446,1.6008,0.62791
14,0.531223,16.2784,0.14124,0.41264,1.6636,0.51776
14,0.56424,16.3438,0.11118,0.46208,1.7153,0.40939
14,0.598083,16.4114,0.084344,0.50926,1.7563,0.31024
14,0.629568,16.4806,0.060891,0.55023,1.7873,0.22273
14,0.655641,16.5499,0.039048,0.58165,1.8096,0.14304
14,0.673841,16.6167,0.017443,0.60218,1.8239,0.068141
14,0.682685,16.6778,-0.0057535,0.61249,1.8307,-0.0080299
14,0.679933,16.734,-0.032985,0.61382,1.8299,-0.095081
14,0.665152,16.7885,-0.063687,0.60875,1.8204,-0.192
14,0.642105,16.845,-0.096529,0.60023,1.8012,-0.29436
14,0.615958,16.9086,-0.13109,0.58934,1.7717,-0.40116
14,0.589694,16.9791,-0.16593,0.57499,1.7316,-0.50768
14,0.562676,17.0501,-0.19767,0.55661,1.6809,-0.60343
14,0.533349,17.1174,-0.22296,0.53599,1.6205,-0.67869
14,0.501348,17.1788,-0.23983,0.51623,1.5527,-0.72889
14,0.467478,17.2341,-0.24781,0.5001,1.4798,-0.75347
14,0.431416,17.2844,-0.24723,0.48912,1.4044,-0.75223
14,0.392185,17.3304,-0.23734,0.48065,1.3292,-0.72204
14,0.350794,17.3736,-0.21898,0.4705,1.257,-0.66591
14,0.309168,17.416,-0.19536,0.45509,1.1904,-0.59386
14,0.269033,17.4571,-0.1695,0.43035,1.131,-0.51475
14,0.232382,17.4938,-0.14281,0.39728,1.0795,-0.43266
14,0.202747,17.5246,-0.11401,0.36148,1.0363,-0.34402
14,0.183639,17.5526,-0.081421,0.32677,1.0019,-0.24374
14,0.17598,17.5824,-0.0451,0.29482,0.97749,-0.13207
14,0.178211,17.6169,-0.0063536,0.2658,0.96429,-0.013316
14,0.188218,17.656,0.034519,0.2388,0.96296,0.11108
15,-0.134458,12.8882,0.054228,0.34347,-0.28683,0.26842
15,-0.127646,12.9192,0.050074,0.31552,-0.25999,0.22874
15,-0.122485,12.941,0.044531,0.2817,-0.23712,0.18847
15,-0.11911,12.9534,0.038201,0.2424,-0.21827,0.14764
15,-0.11766,12.9592,0.0318,0.1988,-0.2035,0.11005
15,-0.117738,12.9629,0.025215,0.15305,-0.1925,0.076317
15,-0.117618,12.9689,0.016503,0.10797,-0.18487,0.037037
15,-0.116584,12.9798,0.0044985,0.06608,-0.18116,-0.012211
15,-0.115624,12.9939,-0.010618,0.02804,-0.18239,-0.070872
15,-0.116277,13.0072,-0.028863,-0.0065229,-0.18947,-0.13779
15,-0.118397,13.0157,-0.04874,-0.037544,-0.20325,-0.20906
15,-0.121322,13.0169,-0.068231,-0.064767,-0.22416,-0.28226
15,-0.125413,13.0098,-0.085329,-0.087393,-0.25238,-0.34771
15,-0.129719,12.9944,-0.098507,-0.10476,-0.28716,-0.39134
15,-0.132808,12.9717,-0.10769,-0.1179,-0.32629,-0.41068
15,-0.13531,12.9443,-0.11339,-0.12916,-0.36736,-0.40916
15,-0.141026,12.9151,-0.11719,-0.14131,-0.40827,-0.39416
15,-0.153257,12.8869,-0.12099,-0.15591,-0.44769,-0.37576
15,-0.172957,12.8608,-0.12548,-0.17182,-0.48526,-0.3566
15,-0.200179,12.8365,-0.13068,-0.18608,-0.52092,-0.33438
15,-0.231938,12.8131,-0.13655,-0.19496,-0.55436,-0.31055
15,-0.264108,12.7897,-0.14202,-0.19557,-0.58542,-0.28561
15,-0.293143,12.7662,-0.14539,-0.18685,-0.61398,-0.25213
15,-0.316124,12.7438,-0.1466,-0.16905,-0.63919,-0.20613
15,-0.333042,12.7234,-0.14718,-0.143,-0.6598,-0.15527
15,-0.344511,12.7046,-0.14687,-0.10999,-0.67533,-0.10114
15,-0.351998,12.6863,-0.14201,-0.072012,-0.68545,-0.028431
15,-0.358561,12.668,-0.12939,-0.032342,-0.68829,0.075353
15,-0.366583,12.6502,-0.10826,0.0060705,-0.68075,0.2124
15,-0.377641,12.635,-0.079247,0.041849,-0.65951,0.37957
15,-0.391489,12.6258,-0.045704,0.075554,-0.62156,0.56398
15,-0.405366,12.6258,-0.011473,0.10973,-0.56516,0.75278
15,-0.416188,12.6361,0.020485,0.1465,-0.48988,0.93346
15,-0.422917,12.6563,0.047232,0.18613,-0.39653,1.0863
15,-0.427167,12.6857,0.068556,0.22801,-0.2879,1.2045
15,-0.429051,12.7243,0.085171,0.27194,-0.16745,1.2866
15,-0.425042,12.7711,0.098277,0.31805,-0.038794,1.3361
15,-0.412038,12.8222,0.11032,0.3659,0.094816,1.3684
15,-0.389474,12.8729,0.12308,0.4137,0.23166,1.3941
15,-0.358673,12.9202,0.13787,0.45876,0.37107,1.4188
15,-0.323346,12.9642,0.15447,0.4983,0.51295,1.4434
15,-0.287054,13.0091,0.17065,0.53092,0.65729,1.4613
15,-0.252174,13.0592,0.18414,0.55785,0.80342,1.4636
15,-0.22166,13.1161,0.19401,0.5812,0.94978,1.4453
15,-0.195929,13.1795,0.20107,0.60182,1.0943,1.4108
15,-0.174169,13.2485,0.20574,0.61902,1.2354,1.3636
15,-0.155444,13.3224,0.20642,0.63238,1.3717,1.2976
15,-0.137926,13.3998,0.20164,0.64405,1.5015,1.2077
15,-0.12042,13.4776,0.19141,0.65741,1.6223,1.0948
15,-0.10191,13.5525,0.1766,0.67451,1.7317,0.963
15,-0.082544,13.6224,0.15924,0.69454,1.828,0.82116
15,-0.0640745,13.6876,0.14135,0.71355,1.9102,0.67706
15,-0.0479002,13.7518,0.12364,0.72684,1.9779,0.53314
15,-0.0349014,13.8187,0.10682,0.73214,2.0312,0.39384
15,-0.0250297,13.8893,0.089738,0.73083,2.0706,0.25643
15,-0.0175738,13.9623,0.071448,0.72593,2.0962,0.11901
15,-0.0122087,14.0358,0.052328,0.72009,2.1081,-0.01473
15,-0.00875739,14.1103,0.031951,0.71649,2.1066,-0.14613
15,-0.00665246,14.1878,0.010388,0.71813,2.092,-0.27659
15,-0.00547707,14.2692,-0.011781,0.72617,2.0644,-0.40455
15,-0.00486007,14.3533,-0.03349,0.73992,2.0239,-0.52671
15,-0.00434965,14.4362,-0.053319,0.75698,1.9712,-0.63987
15,-0.00488821,14.5129,-0.071097,0.77354,1.9073,-0.74144
15,-0.00801876,14.5804,-0.087174,0.78645,1.8331,-0.8265
15,-0.0164525,14.6411,-0.1017,0.79479,1.7505,-0.89089
15,-0.0312739,14.7003,-0.11496,0.7997,1.6614,-0.93847
15,-0.0507875,14.7626,-0.12709,0.80255,1.5675,-0.97546
15,-0.0740247,14.8328,-0.13808,0.80305,1.47,-1.0055
15,-0.0996449,14.9139,-0.14836,0.79969,1.3694,-1.0315
15,-0.125473,15.0049,-0.15825,0.79157,1.2663,-1.0544
15,-0.149524,15.1022,-0.16793,0.77965,1.1608,-1.0755
15,-0.170712,15.2016,-0.17778,0.76729,1.0533,-1.0972
15,-0.190095,15.2989,-0.18705,0.75915,0.94358,-1.117
15,-0.20925,15.3916,-0.19401,0.75778,0.83188,-1.1276
15,-0.228439,15.4789,-0.19609,0.76046,0.71912,-1.1176
15,-0.247499,15.5617,-0.19309,0.76167,0.60736,-1.0814
15,-0.266386,15.6409,-0.18664,0.75752,0.49923,-1.0224
15,-0.284919,15.7164,-0.1763,0.74509,0.39698,-0.94177
15,-0.303371,15.7872,-0.16187,0.72372,0.3028,-0.84005
15,-0.321979,15.8523,-0.14453,0.69606,0.2188,-0.72379
15,-0.340715,15.9126,-0.12634,0.6654,0.14642,-0.60103
15,-0.359914,15.9708,-0.10913,0.63441,0.086318,-0.47548
15,-0.378995,16.0312,-0.092684,0.60509,0.03877,-0.35154
15,-0.396031,16.0959,-0.076129,0.57868,0.003616,-0.23959
15,-0.408636,16.162,-0.059373,0.55536,-0.020343,-0.15072
15,-0.417459,16.2237,-0.042523,0.53463,-0.035415,-0.080871
15,-0.424073,16.2776,-0.025629,0.51599,-0.043502,-0.016739
15,-0.426623,16.3229,-0.0088171,0.49946,-0.045176,0.05074
15,-0.423376,16.3613,0.0080263,0.48552,-0.040102,0.12405
15,-0.414543,16.397,0.025007,0.47451,-0.027697,0.20245
15,-0.402208,16.433,0.042096,0.46613,-0.0074526,0.28713
15,-0.388976,16.4704,0.05947,0.45887,0.02126,0.37843
15,-0.375463,16.5091,0.076845,0.45027,0.059103,0.47417
15,-0.361507,16.5489,0.093113,0.43902,0.10652,0.56824
15,-0.347184,16.5896,0.10737,0.42716,0.16334,0.65446
15,-0.332545,16.631,0.12081,0.41815,0.22879,0.73197
16,-0.0906478,15.283,0.024028,0.4332,0.27193,-0.33001
16,-0.0880601,15.3299,0.025539,0.43265,0.23893,-0.34033
16,-0.0841952,15.3836,0.0268,0.43024,0.20489,-0.34308
16,-0.0800239,15.4422,0.027975,0.42923,0.17058,-0.3403
16,-0.0754017,15.504,0.030773,0.43279,0.13655,-0.32873
16,-0.0703274,15.568,0.036475,0.44298,0.10368,-0.30482
16,-0.0646687,15.6327,0.044277,0.46009,0.0732,-0.27242
16,-0.0588423,15.6958,0.052003,0.48301,0.045957,-0.24003
16,-0.0532853,15.7545,0.058575,0.51014,0.021954,-0.21141
16,-0.0481616,15.8062,0.064772,0.52713,0.00081281,-0.18203
16,-0.0430674,15.8506,0.070201,0.54267,-0.01739,-0.15165
16,-0.0375106,15.8894,0.07385,0.55285,-0.032556,-0.12416
16,-0.0318738,15.9259,0.075756,0.5551,-0.044972,-0.10174
16,-0.0261314,15.9635,0.076886,0.54924,-0.055146,-0.082975
16,-0.0188538,16.0049,0.077557,0.53668,-0.063443,-0.069077
16,-0.0087662,16.0516,0.077553,0.5197,-0.070351,-0.058154
16,0.00356704,16.1045,0.076832,0.50134,-0.076166,-0.045988
16,0.0158627,16.1633,0.0759,0.48438,-0.080765,-0.031635
16,0.0271007,16.2281,0.075103,0.47061,-0.083929,-0.01409
16,0.0384245,16.2974,0.073924,0.46067,-0.085338,0.0048595
16,0.0497535,16.3684,0.071441,0.4535,-0.084852,0.020051
16,0.0596389,16.4356,0.067531,0.44734,-0.082847,0.031427
16,0.0673167,16.4938,0.06304,0.44062,-0.079704,0.043127
16,0.0737473,16.5407,0.058383,0.43206,-0.075391,0.05516
16,0.0797121,16.5774,0.052827,0.42108,-0.069875,0.063328
16,0.0847783,16.6074,0.045709,0.40721,-0.063542,0.065205
16,0.0889956,16.6354,0.037334,0.38999,-0.057022,0.062299
16,0.0929584,16.6646,0.029141,0.36901,-0.050792,0.059893
16,0.0969211,16.6958,0.021574,0.34343,-0.044803,0.058661
16,0.099686,16.7276,0.013623,0.31268,-0.038937,0.055316
16,0.0998148,16.7576,0.0050045,0.2771,-0.033405,0.047954
16,0.0975522,16.7841,-0.0040532,0.23881,-0.02861,0.036839
16,0.0942063,16.8071,-0.013435,0.20092,-0.024926,0.02468
16,0.0906354,16.8277,-0.024487,0.16468,-0.022458,0.0074039
16,0.0867995,16.847,-0.038394,0.12855,-0.021717,-0.015636
16,0.0826522,16.866,-0.054302,0.08963,-0.023281,-0.042042
16,0.0782341,16.8844,-0.071747,0.045357,-0.027485,-0.074067
16,0.0741448,16.9013,-0.090804,-0.0053851,-0.034892,-0.1088
16,0.0702485,16.9149,-0.1113,-0.061459,-0.045772,-0.14836
16,0.0656695,16.9228,-0.13177,-0.12012,-0.060608,-0.19419
16,0.0597624,16.9226,-0.15091,-0.1785,-0.080027,-0.24249
16,0.0515325,16.9132,-0.16904,-0.23556,-0.10428,-0.29579
16,0.0404465,16.8956,-0.18714,-0.29219,-0.13385,-0.36079
16,0.0247734,16.8701,-0.20588,-0.3497,-0.16993,-0.43879
16,0.00292326,16.8345,-0.22509,-0.40896,-0.21381,-0.52461
16,-0.0238265,16.7867,-0.24459,-0.46987,-0.26627,-0.61251
16,-0.0544978,16.7261,-0.26431,-0.53149,-0.32752,-0.69545
16,-0.0886503,16.6538,-0.28451,-0.59284,-0.39707,-0.77461
16,-0.12567,16.5728,-0.30515,-0.65309,-0.47453,-0.85533
16,-0.163863,16.4873,-0.32594,-0.71122,-0.56006,-0.93757
16,-0.202,16.4005,-0.34645,-0.76516,-0.65382,-1.0151
16,-0.240526,16.313,-0.36475,-0.81292,-0.75533,-1.0753
16,-0.280071,16.2228,-0.37858,-0.85391,-0.86286,-1.1064
16,-0.32113,16.1283,-0.3855,-0.88765,-0.9735,-1.0979
16,-0.363375,16.0291,-0.38358,-0.91262,-1.0833,-1.0473
16,-0.406524,15.9263,-0.37356,-0.92777,-1.188,-0.96222
16,-0.450393,15.8215,-0.35697,-0.93371,-1.2842,-0.84938
16,-0.494871,15.7157,-0.335,-0.93168,-1.3692,-0.71581
16,-0.540051,15.6087,-0.30855,-0.92361,-1.4408,-0.56353
16,-0.586206,15.5004,-0.27898,-0.91187,-1.4971,-0.39347
16,-0.633128,15.3922,-0.24747,-0.89804,-1.5365,-0.20564
16,-0.677961,15.2874,-0.21426,-0.88163,-1.557,-0.00036827
16,-0.716708,15.1878,-0.17913,-0.86043,-1.5571,0.22069
16,-0.746222,15.0948,-0.14152,-0.83226,-1.535,0.45698
16,-0.764241,15.0093,-0.10126,-0.79581,-1.4893,0.70228
16,-0.770948,14.9311,-0.058087,-0.7507,-1.4191,0.94653
16,-0.768442,14.8587,-0.011997,-0.69746,-1.3244,1.1833
16,-0.758655,14.7905,0.036477,-0.63714,-1.2061,1.4206
16,-0.742768,14.7256,0.087174,-0.57106,-1.064,1.6705
16,-0.721832,14.6636,0.13911,-0.50069,-0.89697,1.9269
16,-0.696945,14.6045,0.19063,-0.42837,-0.70427,2.1709
16,-0.669038,14.5497,0.23849,-0.35679,-0.48718,2.3792
16,-0.638331,14.5019,0.27939,-0.28721,-0.24927,2.5321
16,-0.604176,14.4637,0.31256,-0.2197,0.0039433,2.6234
16,-0.565903,14.4375,0.33758,-0.15427,0.26629,2.658
16,-0.522699,14.4249,0.35404,-0.090888,0.53209,2.6452
16,-0.474387,14.4265,0.36225,-0.029274,0.79661,2.5919
16,-0.421917,14.4414,0.36308,0.031358,1.0558,2.504
16,-0.365703,14.4666,0.35776,0.092574,1.3062,2.3863
16,-0.307985,14.499,0.34726,0.15587,1.5448,2.2405
16,-0.251865,14.5355,0.33239,0.22143,1.7689,2.0621
16,-0.20099,14.5738,0.31416,0.28709,1.9751,1.8541
16,-0.157929,14.6134,0.29284,0.34924,2.1605,1.6291
16,-0.121095,14.6554,0.26782,0.4046,2.3234,1.3956
16,-0.0890828,14.7007,0.23848,0.45046,2.463,1.1627
16,-0.0628635,14.7494,0.20407,0.48463,2.5792,0.93702
16,-0.0439501,14.8001,0.16442,0.50573,2.6729,0.71131
16,-0.0325023,14.8532,0.1205,0.51427,2.744,0.46912
16,-0.0272436,14.9108,0.072844,0.51295,2.791,0.20075
16,-0.0273156,14.9753,0.02377,0.50519,2.811,-0.082136
16,-0.0321661,15.0473,-0.023507,0.4944,2.8028,-0.35812
16,-0.0407197,15.1239,-0.065829,0.48327,2.767,-0.60842
16,-0.0526525,15.2004,-0.10164,0.47273,2.7062,-0.82284
16,-0.0685392,15.2729,-0.1333,0.46238,2.6239,-1.0076
16,-0.088934,15.3384,-0.16287,0.45162,2.5231,-1.1743
16,-0.114559,15.3941,-0.1898,0.44059,2.4057,-1.3261
16,-0.14555,15.438,-0.21203,0.43023,2.2731,-1.4571
16,-0.180914,15.4699,-0.22784,0.42125,2.1274,-1.5619
16,-0.220016,15.4925,-0.2374,0.41293,1.9712,-1.6409
16,-0.260444,15.5094,-0.24105,0.40369,1.8071,-1.6943
16,-0.298878,15.5243,-0.23865,0.39382,1.6377,-1.7171
16,-0.332648,15.5403,-0.23148,0.3852,1.466,-1.7131
16,-0.361216,15.5589,-0.2207,0.37964,1.2947,-1.6934
16,-0.387693,15.5801,-0.20643,0.37893,1.1253,-1.6652
16,-0.414822,15.6039,-0.18856,0.38489,0.9588,-1.6344
16,-0.442464,15.6305,-0.16686,0.39904,0.79536,-1.6035
16,-0.468003,15.6606,-0.14159,0.42229,0.63501,-1.5676
16,-0.488183,15.6957,-0.11337,0.45415,0.47825,-1.518
16,-0.502048,15.7366,-0.082675,0.4928,0.32645,-1.4489
16,-0.509424,15.7827,-0.050804,0.53598,0.18156,-1.3606
16,-0.509459,15.835,-0.019502,0.5814,0.045498,-1.2577
16,-0.50367,15.8943,0.0098217,0.62738,-0.080271,-1.1463
16,-0.494051,15.9597,0.036726,0.67356,-0.1949,-1.0317
17,0.2545,11.3999,-0.091626,0.094006,0.19488,0.083577
17,0.254486,11.4051,-0.093724,0.11585,0.20324,0.064492
17,0.250747,11.4116,-0.095839,0.13712,0.20969,0.036249
17,0.244757,11.4186,-0.097767,0.15929,0.21331,-0.003587
17,0.237415,11.4258,-0.099452,0.18443,0.21295,-0.051418
17,0.229505,11.433,-0.10271,0.21277,0.20781,-0.10807
17,0.221252,11.4405,-0.10892,0.24214,0.197,-0.17262
17,0.211138,11.4489,-0.11666,0.26916,0.17974,-0.23649
17,0.197403,11.4594,-0.12395,0.29254,0.15609,-0.28764
17,0.180746,11.4738,-0.12913,0.31364,0.12733,-0.31267
17,0.162874,11.4939,-0.13179,0.33487,0.096061,-0.30687
17,0.151404,11.5274,-0.13909,0.37169,0.065374,-0.3252
17,0.139493,11.5645,-0.14338,0.40858,0.032854,-0.34843
17,0.127403,11.607,-0.1457,0.44323,-0.0019888,-0.38915
17,0.115268,11.6581,-0.14615,0.47454,-0.040903,-0.44233
17,0.100438,11.7191,-0.14457,0.50353,-0.085137,-0.49795
17,0.0802338,11.7874,-0.14076,0.53268,-0.13493,-0.55045
17,0.0561747,11.8575,-0.13354,0.56252,-0.18998,-0.58831
17,0.0313882,11.9265,-0.12177,0.59048,-0.24881,-0.59523
17,0.00914574,11.9959,-0.10644,0.61227,-0.30833,-0.56865
17,-0.0090706,12.0697,-0.088823,0.62471,-0.3652,-0.51698
17,-0.023693,12.1485,-0.07379,0.62347,-0.41689,-0.47558
17,-0.0360134,12.2287,-0.059596,0.61452,-0.46445,-0.41882
17,-0.0466401,12.3051,-0.046532,0.59942,-0.50633,-0.33585
17,-0.0548784,12.3749,-0.034408,0.57932,-0.53992,-0.22501
17,-0.0596405,12.4401,-0.022232,0.55587,-0.56242,-0.089526
17,-0.0602765,12.5059,-0.0087907,0.53135,-0.57137,0.062881
17,-0.0559458,12.574,0.0055342,0.508,-0.56508,0.22169
17,-0.0461376,12.6404,0.019346,0.48607,-0.54292,0.37283
17,-0.0321271,12.6984,0.031042,0.46343,-0.50563,0.49362
17,-0.0147716,12.7434,0.04002,0.43687,-0.45627,0.57604
17,0.00382419,12.7743,0.046934,0.40475,-0.39867,0.63167
17,0.0203004,12.7935,0.0527,0.36911,-0.3355,0.67933
17,0.0343387,12.8058,0.057279,0.33365,-0.26757,0.73201
17,0.0464524,12.8168,0.060225,0.30017,-0.19437,0.78518
17,0.0559736,12.8308,0.06122,0.26688,-0.11585,0.8281
17,0.0626524,12.8501,0.059938,0.22942,-0.033039,0.85601
17,0.0672431,12.8735,0.055982,0.18678,0.052562,0.86656
17,0.0700801,12.8986,0.049537,0.14276,0.13922,0.85712
17,0.0712293,12.9227,0.041665,0.1033,0.22493,0.82941
17,0.0709691,12.9434,0.032461,0.072019,0.30787,0.78612
17,0.0701748,12.958,0.022715,0.049215,0.38648,0.73348
17,0.069386,12.9669,0.014415,0.032356,0.45983,0.67221
17,0.0679174,12.9724,0.0080949,0.017403,0.52705,0.59248
17,0.0655706,12.9752,0.0034654,0.00057669,0.5863,0.49061
17,0.0627999,12.9738,0.00029371,-0.020273,0.63536,0.36919
17,0.0595997,12.9647,-0.0024026,-0.045806,0.67228,0.23518
17,0.0560177,12.9475,-0.0064231,-0.076037,0.6958,0.09058
17,0.052936,12.9259,-0.012678,-0.10995,0.70486,-0.065207
17,0.0512026,12.905,-0.020741,-0.14536,0.69834,-0.22326
17,0.0501503,12.8874,-0.030057,-0.17909,0.67601,-0.3764
17,0.0492534,12.8727,-0.041133,-0.20721,0.63837,-0.52549
17,0.0491301,12.8582,-0.053916,-0.22836,0.58582,-0.67475
17,0.0505285,12.8406,-0.067327,-0.24299,0.51835,-0.82654
17,0.0533833,12.8179,-0.080989,-0.25152,0.43569,-0.97595
17,0.056561,12.7903,-0.095252,-0.25461,0.3381,-1.1149
17,0.0578473,12.7584,-0.10964,-0.25267,0.22661,-1.2349
17,0.0543969,12.7214,-0.12249,-0.24683,0.10312,-1.3271
17,0.0447246,12.6787,-0.13274,-0.23903,-0.029597,-1.3859
17,0.0297472,12.632,-0.14066,-0.23142,-0.16819,-1.4118
17,0.0108549,12.5852,-0.14658,-0.22512,-0.30937,-1.4099
17,-0.0120922,12.5436,-0.1507,-0.21974,-0.45037,-1.3882
17,-0.0384464,12.5102,-0.15346,-0.21344,-0.58918,-1.3495
17,-0.0667372,12.4864,-0.15526,-0.20391,-0.72414,-1.2927
17,-0.0964065,12.4722,-0.15605,-0.19008,-0.85341,-1.2166
17,-0.127703,12.4646,-0.15515,-0.17314,-0.97507,-1.1202
17,-0.159675,12.4594,-0.15107,-0.15427,-1.0871,-1.0017
17,-0.188967,12.4538,-0.14116,-0.13216,-1.1873,-0.85458
17,-0.212541,12.4478,-0.12349,-0.10565,-1.2727,-0.67533
17,-0.230122,12.4421,-0.098847,-0.076342,-1.3403,-0.47219
17,-0.243008,12.4372,-0.069112,-0.048605,-1.3875,-0.25413
17,-0.252154,12.4332,-0.035075,-0.027113,-1.4129,-0.024947
17,-0.257799,12.4314,0.0031574,-0.013631,-1.4154,0.21609
17,-0.259995,12.4328,0.045401,-0.0079798,-1.3938,0.47041
17,-0.258718,12.4378,0.090523,-0.0088785,-1.3467,0.73434
17,-0.25374,12.444,0.13728,-0.012801,-1.2733,1.0006
17,-0.24429,12.4499,0.18468,-0.014992,-1.1732,1.2577
17,-0.227918,12.4571,0.23011,-0.012205,-1.0475,1.4891
17,-0.202265,12.4674,0.27142,-0.0034634,-0.89856,1.683
17,-0.167947,12.4793,0.30852,0.01108,-0.73026,1.8342
17,-0.127368,12.488,0.34209,0.030245,-0.54684,1.9453
17,-0.0822429,12.4894,0.37289,0.051746,-0.35231,2.0281
17,-0.0321316,12.483,0.40126,0.072968,-0.1495,2.0909
17,0.0240653,12.4704,0.42712,0.092216,0.059599,2.1324
17,0.0846387,12.4544,0.45045,0.10978,0.27284,2.1498
17,0.146858,12.439,0.47195,0.12769,0.48782,2.1512
17,0.209676,12.4294,0.49206,0.14703,0.70294,2.1467
17,0.271252,12.4294,0.50934,0.16661,0.9176,2.1372
17,0.3303,12.4409,0.52186,0.1851,1.1313,2.1239
17,0.386914,12.4643,0.52953,0.20323,1.3437,2.1129
17,0.441172,12.4976,0.53379,0.22394,1.555,2.1088
17,0.493627,12.5367,0.53585,0.24998,1.7659,2.1123
17,0.544721,12.5773,0.53487,0.28185,1.9771,2.1154
17,0.594254,12.6173,0.52959,0.31869,2.1887,2.1097
17,0.642182,12.6573,0.52079,0.35899,2.3996,2.092
17,0.690162,12.6994,0.50896,0.39991,2.6088,2.0602
17,0.739832,12.744,0.49261,0.43715,2.8149,2.0106
17,0.790754,12.7903,0.47073,0.46697,3.0159,1.9388
17,0.841449,12.8376,0.4427,0.48709,3.2098,1.8394
17,0.891114,12.8858,0.40908,0.49658,3.3937,1.7188
17,0.940202,12.9359,0.37143,0.49744,3.5656,1.5901
17,0.989459,12.9894,0.33041,0.49432,3.7246,1.4529
17,1.0376,13.0467,0.2867,0.49123,3.8699,1.3045
17,1.08325,13.1078,0.24138,0.48907,4.0004,1.1545
17,1.12623,13.1724,0.19521,0.48575,4.1158,1.0132
17,1.16478,13.2389,0.14798,0.47879,4.2171,0.87659
17,1.1949,13.3037,0.09938,0.46785,4.3048,0.73173
17,1.21272,13.3634,0.049665,0.45394,4.378,0.56895
17,1.21569,13.4151,-0.0003602,0.43793,4.4349,0.38683
17,1.20507,13.4574,-0.050214,0.42015,4.4735,0.18753
17,1.18403,13.4925,-0.10007,0.40022,4.4923,-0.027436
17,1.15444,13.5254,-0.15014,0.37767,4.4896,-0.25552
17,1.11812,13.5598,-0.2,0.35254,4.464,-0.49185
17,1.07702,13.5954,-0.24982,0.32539,4.4148,-0.73459
17,1.0326,13.6288,-0.29973,0.29715,4.3414,-0.9793
17,0.986123,13.657,-0.34768,0.26945,4.2434,-1.2144
17,0.938592,13.6797,-0.38988,0.24476,4.122,-1.4239
17,0.890085,13.6982,-0.42245,0.22549,3.9796,-1.5899
17,0.840729,13.7135,-0.44326,0.21339,3.8206,-1.7012
17,0.790685,13.7261,-0.45363,0.20909,3.6505,-1.7638
17,0.740072,13.7363,-0.45583,0.21073,3.4741,-1.7898
17,0.689172,13.7447,-0.45093,0.21414,3.2951,-1.7841
17,0.637613,13.7517,-0.44032,0.21513,3.1167,-1.7533
17,0.583615,13.7586,-0.42623,0.21235,2.9414,-1.7094
17,0.526769,13.7667,-0.41045,0.20684,2.7704,-1.6623
17,0.469423,13.7778,-0.39448,0.2001,2.6042,-1.6178
17,0.415138,13.7932,-0.37915,0.19337,2.4424,-1.5753
17,0.367808,13.8144,-0.36404,0.1875,2.2849,-1.529
17,0.329166,13.8419,-0.34854,0.18285,2.132,-1.4761
17,0.297818,13.8756,-0.33214,0.17884,1.9844,-1.4163
17,0.272371,13.914,-0.3127,0.18201,1.8427,-1.3382
17,0.25257,13.9536,-0.29397,0.18738,1.7089,-1.2604
17,0.237479,13.99,-0.27564,0.1946,1.5829,-1.1819
17,0.224573,14.0201,-0.256,0.20265,1.4647,-1.0964
17,0.211699,14.0425,-0.23422,0.20997,1.355,-1.0016
17,0.197166,14.0572,-0.21099,0.2147,1.2549,-0.90136
17,0.180299,14.0664,-0.18796,0.21507,1.1647,-0.80354
17,0.162002,14.0732,-0.16765,0.2094,1.0844,-0.71738
17,0.143654,14.0792,-0.15115,0.196,1.0127,-0.64616
17,0.126396,14.0838,-0.13548,0.17913,0.94804,-0.57829
17,0.114675,14.1004,-0.12922,0.16836,0.89021,-0.31898
17,0.101229,14.1195,-0.1254,0.15567,0.85831,-0.3086
17,0.0863408,14.1409,-0.12389,0.14343,0.82746,-0.30667
17,0.0716071,14.1639,-0.12357,0.1336,0.79679,-0.30905
17,0.0583194,14.1867,-0.12323,0.12757,0.76588,-0.31289
17,0.0474349,14.2072,-0.12165,0.12621,0.73459,-0.31356
17,0.0392144,14.2234,-0.11803,0.12879,0.70324,-0.30698
17,0.0325029,14.2332,-0.11262,0.13385,0.67254,-0.29268
17,0.0268584,14.2339,-0.10618,0.1406,0.64327,-0.27286
17,0.0268584,14.2339,-0.10618,0.1406,0.61599,-0.27286
18,0.052716,15.4468,0.0075644,0.59425,0.165,0.020488
18,0.0602156,15.5462,0.0096397,0.6366,0.16705,0.052354
18,0.0643655,15.6322,0.011557,0.66596,0.17228,0.087955
18,0.0662734,15.707,0.013535,0.68364,0.18108,0.11916
18,0.066771,15.773,0.015476,0.69002,0.193,0.14168
18,0.0663238,15.8318,0.016242,0.6855,0.20716,0.1517
18,0.0652512,15.8845,0.013898,0.67023,0.22233,0.14396
18,0.0637743,15.931,0.0077565,0.64463,0.23673,0.11711
18,0.0623249,15.9718,-0.00057052,0.61123,0.24844,0.077766
18,0.0611843,16.0081,-0.0088348,0.57442,0.25622,0.035164
18,0.0602804,16.0411,-0.015432,0.5383,0.25973,0.072689
18,0.0633197,16.1471,-0.024754,0.48103,0.267,0.025658
18,0.0665843,16.246,-0.031044,0.43163,0.26957,-0.0090146
18,0.0703116,16.3356,-0.035202,0.38926,0.26867,-0.032533
18,0.0743823,16.4129,-0.037746,0.35211,0.26541,-0.048532
18,0.0770785,16.4751,-0.03906,0.31808,0.26056,-0.059914
18,0.0749525,16.5192,-0.03965,0.28566,0.25457,-0.068347
18,0.065902,16.5427,-0.039712,0.25477,0.24773,-0.075479
18,0.0516891,16.5471,-0.039531,0.22587,0.24019,-0.080871
18,0.0359299,16.5382,-0.039503,0.19855,0.2321,-0.08685
18,0.021853,16.5234,-0.039776,0.17148,0.22341,-0.10259
18,0.0107077,16.5082,-0.042369,0.10615,0.21316,-0.1434
18,0.00227727,16.4954,-0.045264,0.043469,0.19882,-0.1978
18,-0.00413106,16.4855,-0.048258,-0.014074,0.17904,-0.2555
18,-0.00872175,16.4772,-0.051808,-0.064554,0.15349,-0.31124
18,-0.0117956,16.468,-0.055968,-0.10714,0.12236,-0.36144
18,-0.0140489,16.4558,-0.058601,-0.14083,0.086217,-0.39682
18,-0.0156498,16.4406,-0.057409,-0.16441,0.046535,-0.40722
18,-0.0167373,16.4236,-0.052415,-0.17873,0.0058138,-0.39194
18,-0.0178212,16.4052,-0.04552,-0.1875,-0.033381,-0.35835
18,-0.0192706,16.3841,-0.039336,-0.19537,-0.069216,-0.31993
18,-0.0214174,16.3594,-0.035036,-0.20603,-0.10121,-0.28727
18,-0.0239436,16.3329,-0.03236,-0.22125,-0.12994,-0.26417
18,-0.0262045,16.3074,-0.030805,-0.24097,-0.15635,-0.25047
18,-0.0292332,16.2838,-0.030341,-0.26364,-0.1814,-0.24343
18,-0.0348581,16.2608,-0.030792,-0.28671,-0.20574,-0.24122
18,-0.0422491,16.2375,-0.031574,-0.30784,-0.22986,-0.24158
18,-0.0489162,16.2139,-0.032603,-0.32653,-0.25402,-0.24356
18,-0.0531419,16.1896,-0.033934,-0.34364,-0.27838,-0.24708
18,-0.0551109,16.1632,-0.035325,-0.35913,-0.30309,-0.24953
18,-0.0568188,16.1327,-0.036291,-0.37117,-0.32804,-0.24474
18,-0.0593636,16.0962,-0.036511,-0.37822,-0.35251,-0.22854
18,-0.0624428,16.0529,-0.036305,-0.38174,-0.37537,-0.20441
18,-0.0657404,16.0036,-0.036313,-0.38512,-0.39581,-0.17865
18,-0.0694029,15.9499,-0.035911,-0.38929,-0.41367,-0.15184
18,-0.0733804,15.8946,-0.032603,-0.39139,-0.42886,-0.11738
18,-0.0771974,15.8401,-0.025557,-0.3881,-0.4406,-0.072972
18,-0.0808552,15.7875,-0.016589,-0.37758,-0.44789,-0.02655
18,-0.0846051,15.7363,-0.0080834,-0.35974,-0.45055,0.013754
18,-0.0884707,15.6869,-0.0010737,-0.33573,-0.44917,0.044188
18,-0.0918529,15.6417,0.0052979,-0.30677,-0.44475,0.069005
18,-0.0944403,15.603,0.011405,-0.27409,-0.43785,0.092612
18,-0.0965544,15.5695,0.016772,-0.23912,-0.42859,0.11516
18,-0.0988299,15.5372,0.021529,-0.20326,-0.41708,0.13812
18,-0.101054,15.5052,0.026096,-0.16748,-0.40326,0.16076
18,-0.100065,15.478,0.030242,-0.13222,-0.38719,0.18361
18,-0.0933632,15.4613,0.033692,-0.097099,-0.36883,0.20929
18,-0.0820935,15.4588,0.036974,-0.060841,-0.3479,0.24169
18,-0.0693088,15.4701,0.040643,-0.021929,-0.32373,0.28162
18,-0.0572582,15.4918,0.044607,0.019686,-0.29557,0.32216
18,-0.046223,15.5192,0.048155,0.061543,-0.26335,0.35602
18,-0.0365543,15.548,0.051065,0.10158,-0.22775,0.3826
18,-0.0288978,15.5747,0.053629,0.1418,-0.18949,0.40315
18,-0.0226823,15.5971,0.056067,0.18618,-0.14917,0.41806
18,-0.0172113,15.615,0.057643,0.23452,-0.10737,0.42556
18,-0.012896,15.6301,0.056222,0.281,-0.064812,0.41884
18,-0.00981294,15.6459,0.051742,0.31966,-0.022928,0.39801
18,-0.00690707,15.6658,0.046793,0.34793,0.016874,0.3733
18,-0.00331857,15.6924,0.045035,0.36641,0.054204,0.35791
18,0.00074254,15.7263,0.047002,0.37777,0.089994,0.35456
18,0.00445755,15.7648,0.049552,0.38488,0.12545,0.35275
18,0.00768882,15.8061,0.050449,0.39041,0.16072,0.3449
18,0.0107042,15.8531,0.050192,0.39714,0.19521,0.3333
18,0.013304,15.9095,0.050801,0.40788,0.22854,0.32446
