veh_id,target_vel_x,target_vel_y,target_acc_x,target_acc_y,ref_heading,yaw_rate
1,0.033148,9.8194,0.076237,-0.48623,0.2584,-0.60538
1,0.042822,9.751,0.08393,-0.58375,0.19786,-0.56878
1,0.053102,9.6762,0.092177,-0.6768,0.14099,-0.51358
1,0.063896,9.5951,0.10014,-0.76165,0.089627,-0.44757
1,0.075116,9.5072,0.10679,-0.83578,0.04487,-0.37995
1,0.086702,9.4122,0.11129,-0.89778,0.0068754,-0.31677
1,0.098589,9.3093,0.11328,-0.94665,-0.024802,-0.25726
1,0.11086,9.1982,0.11321,-0.98292,-0.050528,-0.19312
1,0.12364,9.0798,0.11153,-1.0087,-0.06984,-0.1188
1,0.1371,8.9561,0.10852,-1.0263,-0.08172,-0.040563
1,0.15132,8.8293,0.10444,-1.0374,-0.085777,0.032698
1,0.16629,8.7008,0.099455,-1.043,-0.082507,0.099708
1,0.18188,8.5726,0.093721,-1.044,-0.072536,0.16562
1,0.19714,8.4473,0.087588,-1.0402,-0.055974,0.23834
1,0.2108,8.3266,0.081594,-1.0318,-0.03214,0.32712
1,0.22185,8.212,0.076161,-1.0184,0.00057178,0.43324
1,0.2299,8.1051,0.071423,-0.99934,0.043896,0.54426
1,0.23549,8.0063,0.067115,-0.97448,0.098321,0.6496
1,0.23916,7.9144,0.062945,-0.94452,0.16328,0.74482
1,0.24123,7.8276,0.058759,-0.91109,0.23776,0.82766
1,0.24202,7.7447,0.054447,-0.87585,0.32053,0.89975
1,0.24173,7.665,0.049945,-0.83971,0.4105,0.9629
1,0.24054,7.5883,0.045267,-0.80346,0.50679,1.0185
1,0.23907,7.5146,0.041114,-0.76795,0.60865,1.0724
1,0.2383,7.4436,0.038533,-0.73337,0.71588,1.1331
1,0.23902,7.3754,0.038347,-0.69984,0.82919,1.2045
1,0.24143,7.3106,0.040798,-0.66804,0.94964,1.2818
1,0.24509,7.2492,0.045419,-0.63847,1.0778,1.3525
1,0.24953,7.1907,0.051736,-0.61089,1.2131,1.4098
1,0.25462,7.1339,0.059463,-0.58455,1.3541,1.4689
1,0.26022,7.0776,0.068316,-0.55849,1.5009,1.5465
1,0.26618,7.0214,0.078069,-0.53223,1.6556,1.6412
1,0.27242,6.9657,0.088479,-0.50592,1.8197,1.7383
1,0.27937,6.9114,0.099132,-0.47982,1.9935,1.8203
1,0.28787,6.8598,0.10951,-0.45358,2.1756,1.8709
1,0.29854,6.8123,0.11921,-0.4265,2.3627,1.8896
1,0.3115,6.769,0.12812,-0.39854,2.5516,1.8973
1,0.32633,6.7294,0.13647,-0.37009,2.7413,1.9033
1,0.34263,6.6926,0.14446,-0.34132,2.9317,1.9052
1,0.36016,6.6585,0.15215,-0.31194,3.1222,1.9033
1,0.37866,6.6277,0.15962,-0.28146,3.3125,1.8982
1,0.39787,6.6005,0.16702,-0.24993,3.5024,1.8908
1,0.4175,6.5765,0.17336,-0.21824,3.6914,1.8728
1,0.43734,6.5549,0.17658,-0.1878,3.8787,1.8268
1,0.45733,6.5365,0.17509,-0.1599,4.0614,1.7401
1,0.47744,6.5224,0.1678,-0.13464,4.2354,1.6055
1,0.49768,6.5135,0.15527,-0.11248,4.3959,1.4326
1,0.51802,6.509,0.13953,-0.094837,4.5392,1.2466
1,0.53845,6.5081,0.12187,-0.082773,4.6639,1.0627
1,0.55892,6.51,0.10267,-0.074885,4.7701,0.87256
1,0.57946,6.5147,0.082804,-0.068861,4.8574,0.66668
1,0.60022,6.5215,0.063691,-0.062889,4.9241,0.45195
1,0.61914,6.5292,0.045615,-0.05512,4.9693,0.23905
1,0.63252,6.5358,0.027207,-0.045145,4.9932,0.029413
1,0.63804,6.54,0.0067131,-0.033425,4.9961,-0.18071
1,0.63414,6.543,-0.018046,-0.021386,4.978,-0.41066
1,0.62203,6.544,-0.047406,-0.010236,4.937,-0.67613
1,0.60539,6.5397,-0.079453,-0.00062356,4.8694,-0.96444
1,0.58638,6.5271,-0.11285,0.0072036,4.7729,-1.2614
1,0.5655,6.5087,-0.14641,0.013837,4.6468,-1.5569
1,0.54426,6.49,-0.17967,0.019824,4.4911,-1.8474
1,0.52525,6.4748,-0.21306,0.025929,4.3063,-2.1369
1,0.50873,6.4662,-0.24448,0.033941,4.0927,-2.4078
1,0.49175,6.4647,-0.2704,0.045873,3.8519,-2.6286
1,0.47075,6.4696,-0.28871,0.06249,3.589,-2.7815
1,0.44135,6.4797,-0.29805,0.081916,3.3109,-2.8546
1,0.40286,6.493,-0.29967,0.10359,3.0254,-2.8588
1,0.35912,6.5078,-0.2973,0.12958,2.7395,-2.8286
1,0.31275,6.5225,-0.29257,0.16237,2.4566,-2.7814
1,0.26611,6.5377,-0.28513,0.19954,2.1785,-2.712
1,0.22011,6.5543,-0.27574,0.23602,1.9073,-2.6149
1,0.1741,6.5734,-0.26721,0.26793,1.6458,-2.5039
1,0.13017,6.5971,-0.26098,0.29226,1.3954,-2.3928
1,0.091719,6.6275,-0.25469,0.30943,1.1561,-2.2712
1,0.060609,6.665,-0.24466,0.32035,0.92902,-2.1179
1,0.038031,6.7068,-0.226,0.32585,0.71724,-1.8949
1,0.022683,6.7512,-0.19825,0.32612,0.52775,-1.5972
1,0.010789,6.7989,-0.16601,0.32148,0.36803,-1.2631
1,0.0012389,6.8518,-0.13279,0.31256,0.24172,-0.9218
1,-0.0047663,6.9078,-0.10106,0.29906,0.14954,-0.59334
1,-0.0072072,6.962,-0.071407,0.28114,0.090208,-0.28226
1,-0.0091738,7.0106,-0.042634,0.25955,0.061982,0.020259
1,-0.013236,7.0508,-0.014592,0.23451,0.064008,0.31321
2,0.0333519,3.13526,0.0062349,-0.044901,0.28632,-0.21559
2,0.0330924,3.13629,0.0023295,-0.046126,0.26476,-0.26022
2,0.0330454,3.13392,-0.0012676,-0.051229,0.23874,-0.28481
2,0.0343158,3.12487,-0.0040076,-0.058211,0.21026,-0.2855
2,0.0373,3.1094,-0.006071,-0.065163,0.18171,-0.27124
2,0.04088,3.09307,-0.0077169,-0.07141,0.15458,-0.24906
2,0.0437784,3.08127,-0.0090286,-0.077724,0.12967,-0.22136
2,0.0453179,3.07695,-0.01007,-0.085245,0.10754,-0.19045
2,0.0451778,3.07933,-0.010903,-0.094142,0.088493,-0.31889
2,0.0439158,3.08092,-0.012161,-0.10886,0.056604,-0.29846
2,0.0408711,3.08009,-0.013345,-0.1252,0.026758,-0.26043
2,0.0364176,3.07401,-0.014284,-0.14313,0.00071479,-0.19708
2,0.0316145,3.06225,-0.015335,-0.16036,-0.018993,-0.11659
2,0.0273779,3.04665,-0.017466,-0.17312,-0.030652,-0.041892
2,0.0236756,3.02971,-0.021122,-0.18009,-0.034841,0.016243
2,0.0202706,3.01257,-0.02542,-0.18563,-0.033217,0.074895
2,0.0171378,2.99407,-0.029208,-0.19502,-0.025727,0.15637
2,0.0142566,2.972,-0.031773,-0.21086,-0.010091,0.27507
2,0.0115835,2.94568,-0.032709,-0.23138,0.017416,0.43483
2,0.00905622,2.91644,-0.032199,-0.24969,0.0609,0.62823
2,0.00666276,2.88485,-0.029901,-0.26287,0.12372,0.84958
2,0.00452477,2.85004,-0.026165,-0.26895,0.20868,1.0815
2,0.00237438,2.81321,-0.021882,-0.268,0.31684,1.2974
2,-0.000615469,2.77863,-0.017833,-0.26137,0.44657,1.481
2,-0.00494471,2.74921,-0.014101,-0.25037,0.59467,1.6351
2,-0.00996082,2.72182,-0.010718,-0.2349,0.75818,1.7614
2,-0.014637,2.69123,-0.0077937,-0.21314,0.93431,1.8591
2,-0.018229,2.65522,-0.0052893,-0.18327,1.1202,1.9316
2,-0.0202398,2.61656,-0.0031187,-0.14539,1.3134,1.9826
2,-0.0204818,2.58155,-0.0011914,-0.10182,1.5116,2.0144
2,-0.0189315,2.55435,0.00053454,-0.054145,1.7131,2.0265
2,-0.0159116,2.53611,0.0019822,-0.0010422,1.9157,2.0161
2,-0.0121497,2.52625,0.0034627,0.058873,2.1173,1.99
2,-0.00828743,2.52391,0.0056088,0.12452,2.3163,1.961
2,-0.0045263,2.52896,0.0087531,0.19469,2.5124,1.9328
2,-0.00116476,2.54277,0.012901,0.27188,2.7057,1.9009
2,0.00155035,2.56778,0.017806,0.35939,2.8958,1.8593
2,0.00367802,2.60545,0.022977,0.45664,3.0817,1.7984
2,0.00534605,2.6549,0.027997,0.55896,3.2616,1.7265
2,0.00667332,2.7128,0.032658,0.66097,3.4342,1.6577
2,0.00773185,2.77657,0.036875,0.75998,3.6,1.603
2,0.00848908,2.84796,0.040686,0.85555,3.7603,1.5567
2,0.00929978,2.93096,0.044234,0.9482,3.916,1.5023
2,0.0106022,3.02766,0.047768,1.0383,4.0662,1.4293
2,0.0125615,3.1386,0.051646,1.1256,4.2091,1.3362
2,0.0158408,3.26557,0.056427,1.2089,4.3428,1.241
2,0.0209755,3.41001,0.062396,1.286,4.4669,1.1518
2,0.027724,3.56849,0.069387,1.3556,4.582,1.066
2,0.0357549,3.73448,0.077223,1.4182,4.6886,0.98204
2,0.0448337,3.90349,0.085786,1.4763,4.7868,0.8998
2,0.0548187,4.0743,0.094936,1.5318,4.8768,0.81801
2,0.0654613,4.24721,0.1047,1.5834,4.9586,0.73993
2,0.0763189,4.42264,0.11467,1.6273,5.0326,0.66301
2,0.0872491,4.60042,0.12388,1.6607,5.0989,0.57933
2,0.0987657,4.78014,0.13159,1.682,5.1568,0.48548
2,0.111689,4.96062,0.13671,1.6894,5.2054,0.37433
2,0.126342,5.13984,0.13847,1.6814,5.2428,0.23967
2,0.142451,5.31664,0.13737,1.6608,5.2668,0.088803
2,0.159793,5.49131,0.13401,1.632,5.2757,-0.091032
2,0.178246,5.66533,0.12879,1.5984,5.2666,-0.3148
2,0.197604,5.8402,0.12203,1.5612,5.2351,-0.58986
2,0.217897,6.01483,0.114,1.5208,5.1761,-0.89063
2,0.238646,6.18561,0.10509,1.4771,5.087,-1.1695
2,0.258365,6.34904,0.095634,1.4293,4.9701,-1.3963
2,0.275743,6.50268,0.085696,1.376,4.8305,-1.5646
2,0.289265,6.64433,0.075126,1.3167,4.674,-1.694
2,0.297924,6.7729,0.063861,1.2525,4.5046,-1.7935
2,0.302455,6.89001,0.052014,1.1842,4.3252,-1.8646
2,0.303768,6.99853,0.039667,1.1119,4.1388,-1.9116
2,0.302419,7.10036,0.026899,1.0355,3.9476,-1.9395
2,0.298869,7.19675,0.013823,0.9553,3.7537,-1.9508
2,0.293457,7.28886,0.00035935,0.87319,3.5586,-1.9517
2,0.286506,7.37687,-0.013233,0.79162,3.3634,-1.9456
2,0.278518,7.45902,-0.02586,0.71268,3.1689,-1.9267
2,0.270159,7.53209,-0.036714,0.63818,2.9762,-1.8897
2,0.261941,7.59399,-0.044923,0.5697,2.7872,-1.8313
2,0.254063,7.64481,-0.049693,0.50815,2.6041,-1.7484
2,0.246479,7.68499,-0.051291,0.4529,2.4293,-1.6452
2,0.239127,7.71508,-0.050131,0.40258,2.2647,-1.5194
2,0.232044,7.73628,-0.046645,0.35617,2.1128,-1.368
2,0.22525,7.75079,-0.041279,0.3129,1.976,-1.1913
2,0.218616,7.76121,-0.034301,0.27206,1.8569,-0.99943
2,0.21218,7.76884,-0.025987,0.23381,1.7569,-0.80919
2,0.206645,7.7744,-0.016925,0.1991,1.676,-0.63385
2,0.202316,7.77903,-0.0079468,0.16873,1.6126,-0.48215
2,0.19942,7.78373,0.00032927,0.14303,1.5644,-0.35314
2,0.198537,7.7892,0.0078405,0.1226,1.5291,-0.2428
2,0.199874,7.79581,0.014824,0.10944,1.5048,-0.14625
2,0.203506,7.80368,0.021352,0.10497,1.4902,-0.059774
2,0.20913,7.81269,0.027371,0.10814,1.4842,0.019054
2,0.21631,7.82255,0.032896,0.11633,1.4861,0.09202
2,0.224856,7.83299,0.037954,0.12713,1.4953,0.16071
2,0.234532,7.84449,0.042645,0.13955,1.5114,0.22613
2,0.244668,7.85722,0.047401,0.15312,1.534,0.29156
2,0.254265,7.86955,0.053185,0.16689,1.5632,0.36475
2,0.262599,7.88004,0.060793,0.18005,1.5996,0.45266
2,0.269744,7.89001,0.070193,0.192,1.6449,0.55423
2,0.276128,7.90386,0.080622,0.20245,1.7003,0.66143
2,0.281831,7.92502,0.091289,0.21134,1.7665,0.76724
2,0.286785,7.95256,0.10206,0.21883,1.8432,0.87094
2,0.291042,7.98345,0.11301,0.22514,1.9303,0.9736
2,0.294524,8.01546,0.12417,0.23043,2.0276,1.0748
2,0.29747,8.04795,0.13478,0.23459,2.1351,1.1684
2,0.301448,8.08064,0.1437,0.239,2.252,1.2468
2,0.308687,8.11282,0.15068,0.24751,2.3766,1.3078
2,0.321006,8.14382,0.15522,0.26318,2.5074,1.3475
2,0.338924,8.1732,0.1569,0.28619,2.6422,1.3601
2,0.361117,8.20071,0.15631,0.31344,2.7782,1.3477
2,0.386084,8.22636,0.15414,0.34135,2.9129,1.3153
2,0.413254,8.25035,0.15065,0.36933,3.0445,1.2651
2,0.442325,8.27283,0.1461,0.39845,3.171,1.2003
2,0.473205,8.29385,0.14096,0.4294,3.291,1.1259
2,0.504083,8.31366,0.13496,0.46201,3.4036,1.0417
2,0.532075,8.33522,0.12593,0.49563,3.5078,0.93454
2,0.555626,8.36457,0.11132,0.52972,3.6012,0.78673
2,0.573044,8.40639,0.089389,0.56398,3.6799,0.58686
2,0.583543,8.46238,0.060366,0.5986,3.7386,0.33953
2,0.588755,8.53075,0.02657,0.63399,3.7725,0.06443
2,0.590118,8.60773,-0.0096079,0.67038,3.779,-0.21987
2,0.588087,8.69122,-0.047177,0.7077,3.757,-0.5072
2,0.583247,8.78036,-0.086102,0.74591,3.7063,-0.79825
2,0.576454,8.87427,-0.12639,0.78505,3.6265,-1.091
2,0.567398,8.97197,-0.16632,0.82476,3.5174,-1.3724
2,0.5533,9.0719,-0.20305,0.8624,3.3801,-1.6261
2,0.53133,9.17225,-0.23508,0.89355,3.2175,-1.8422
2,0.499784,9.27178,-0.26081,0.91444,3.0333,-2.0079
2,0.459655,9.37041,-0.27966,0.92176,2.8325,-2.1167
2,0.414257,9.4687,-0.29332,0.91434,2.6208,-2.1789
2,0.366868,9.56712,-0.30327,0.89442,2.4029,-2.2213
2,0.318899,9.66576,-0.3109,0.86829,2.1808,-2.2425
2,0.270121,9.76465,-0.31671,0.83693,1.9566,-2.2472
2,0.220423,9.86396,-0.32142,0.80104,1.7318,-2.2413
2,0.171452,9.96318,-0.32477,0.76146,1.5077,-2.2244
2,0.125977,10.06,-0.32421,0.71942,1.2853,-2.1822
2,0.0854617,10.1517,-0.31692,0.67644,1.067,-2.0983
2,0.0514179,10.2353,-0.30089,0.6335,0.85721,-1.9616
2,0.0242284,10.3059,-0.27699,0.59059,0.66105,-1.7792
2,0.00211704,10.3594,-0.25429,0.54145,0.48313,-1.607
2,-0.0164143,10.3966,-0.24273,0.51814,0.32243,-1.0834
2,-0.0337226,10.4278,-0.22957,0.49213,0.21409,-1.0137
2,-0.0501769,10.4542,-0.21438,0.4629,0.11272,-0.93341
2,-0.0663943,10.4764,-0.19672,0.42977,0.019378,-0.84066
2,-0.0821356,10.4949,-0.17719,0.39227,-0.064688,-0.74006
3,0.0149292,5.31184,0.011239,0.53775,0.1651,0.040686
3,0.0162218,5.36083,0.013993,0.61573,0.16917,0.060222
3,0.0174498,5.40876,0.017511,0.68585,0.17519,0.084505
3,0.018604,5.45827,0.021321,0.75029,0.18364,0.10911
3,0.0197006,5.5098,0.024944,0.81042,0.19455,0.12998
3,0.0207513,5.56231,0.028228,0.86621,0.20755,0.14637
3,0.0217485,5.61496,0.031271,0.91763,0.22219,0.15965
3,0.0226891,5.66805,0.034088,0.96493,0.23815,0.17027
3,0.0234701,5.7235,0.036674,1.0085,0.25518,0.17848
3,0.0243751,5.78351,0.039051,1.0489,0.27303,0.1845
3,0.0261678,5.84958,0.041266,1.0862,0.29148,0.28135
3,0.0303216,5.98914,0.044871,1.152,0.31961,0.29876
3,0.0359427,6.13486,0.048564,1.2178,0.34949,0.316
3,0.0426462,6.28722,0.052128,1.2821,0.38109,0.33145
3,0.0498502,6.44642,0.055178,1.345,0.41423,0.34286
3,0.0572709,6.61116,0.057398,1.4079,0.44852,0.34816
3,0.0649628,6.78004,0.058723,1.4715,0.48334,0.34722
3,0.0728793,6.95221,0.059315,1.5351,0.51806,0.34152
3,0.080942,7.12721,0.059434,1.5962,0.55221,0.33267
3,0.0891256,7.30475,0.058916,1.6519,0.58548,0.31912
3,0.097462,7.48433,0.057077,1.6998,0.61739,0.29556
3,0.105964,7.66477,0.053134,1.705,0.64694,0.25776
3,0.114577,7.84445,0.047688,1.7002,0.67272,0.20984
3,0.122861,8.0225,0.041063,1.6846,0.6937,0.1548
3,0.130056,8.19981,0.03378,1.6585,0.70918,0.096459
3,0.135547,8.37808,0.026102,1.6241,0.71883,0.037568
3,0.139195,8.5579,0.018014,1.584,0.72259,-0.021644
3,0.141318,8.73819,0.0095782,1.5401,0.72042,-0.081472
3,0.142337,8.91589,0.00088873,1.4935,0.71228,-0.14131
3,0.142206,9.08724,-0.0080108,1.4445,0.69814,-0.20052
3,0.140321,9.24912,-0.017117,1.3938,0.67809,-0.25931
3,0.13659,9.39904,-0.026441,1.3421,0.65216,-0.31836
3,0.131318,9.53524,-0.035937,1.29,0.62033,-0.37713
3,0.124773,9.65647,-0.045149,1.2372,0.58261,-0.43399
3,0.117409,9.76342,-0.053289,1.1817,0.53921,-0.48662
3,0.109475,9.85936,-0.059833,1.1207,0.49055,-0.53283
3,0.10099,9.9481,-0.064805,1.0527,0.43727,-0.57424
3,0.0920356,10.0325,-0.068129,0.97804,0.37984,-0.61071
3,0.0827194,10.1142,-0.069372,0.89983,0.31877,-0.63715
3,0.0731039,10.1938,-0.067873,0.82245,0.25506,-0.6481
3,0.0632277,10.2719,-0.063112,0.74939,0.19025,-0.64038
3,0.053083,10.349,-0.055547,0.68244,0.12621,-0.61679
3,0.0427032,10.4245,-0.045834,0.62227,0.064529,-0.58128
3,0.0325632,10.497,-0.034337,0.56927,0.0064019,-0.53594
3,0.023477,10.5632,-0.021477,0.52299,-0.047192,-0.48223
3,0.0158813,10.6195,-0.0075468,0.48145,-0.095415,-0.42121
3,0.00958448,10.6633,0.0073003,0.4421,-0.13754,-0.35237
3,0.00505968,10.6943,0.022933,0.40299,-0.17277,-0.27366
3,0.00359345,10.7156,0.039195,0.3632,-0.20014,-0.18541
3,0.00646066,10.7322,0.055965,0.3226,-0.21868,-0.089723
3,0.0140974,10.7479,0.073168,0.28128,-0.22765,0.01188
3,0.0254955,10.7639,0.090763,0.23929,-0.22647,0.11854
3,0.03965,10.7798,0.10868,0.19709,-0.21461,0.22894
3,0.0560978,10.795,0.12664,0.15604,-0.19172,0.34328
3,0.0744561,10.8094,0.1442,0.11846,-0.15739,0.46234
3,0.0943817,10.8223,0.16118,0.087379,-0.11116,0.58581
3,0.115591,10.8323,0.17785,0.065488,-0.052575,0.71624
3,0.137901,10.8385,0.19355,0.053387,0.019049,0.84966
3,0.161109,10.8406,0.20684,0.048575,0.10402,0.97413
3,0.185033,10.839,0.2163,0.0467,0.20143,1.0801
3,0.209564,10.8345,0.22143,0.044418,0.30944,1.1647
3,0.234608,10.8275,0.22313,0.040931,0.42591,1.2324
3,0.260065,10.8187,0.22231,0.036849,0.54915,1.2875
3,0.28585,10.809,0.21931,0.032669,0.6779,1.3319
3,0.311867,10.8001,0.2144,0.028467,0.81108,1.3664
3,0.338247,10.7943,0.20786,0.024511,0.94773,1.3895
3,0.365282,10.7943,0.19995,0.021528,1.0867,1.3986
3,0.392162,10.801,0.19088,0.020132,1.2265,1.3908
3,0.417269,10.8127,0.18088,0.020485,1.3656,1.3661
3,0.439065,10.8256,0.17013,0.022415,1.5022,1.3274
3,0.456952,10.8367,0.15873,0.025645,1.635,1.2776
3,0.471763,10.8458,0.14679,0.029941,1.7627,1.2187
3,0.484265,10.8535,0.13442,0.035029,1.8846,1.1521
3,0.494713,10.8603,0.1217,0.04043,1.9998,1.0773
3,0.503264,10.8663,0.10871,0.045377,2.1075,0.99406
3,0.510102,10.8713,0.095401,0.048681,2.2069,0.90425
3,0.515482,10.8754,0.081667,0.049032,2.2974,0.80795
3,0.519656,10.8787,0.067923,0.045939,2.3782,0.70597
3,0.522859,10.8815,0.054986,0.040354,2.4488,0.60424
3,0.525285,10.8839,0.043666,0.03416,2.5092,0.50874
3,0.527029,10.8858,0.034254,0.02876,2.56,0.42215
3,0.528182,10.8874,0.026245,0.024266,2.6023,0.34184
3,0.528899,10.8888,0.019244,0.0202,2.6364,0.26512
3,0.529255,10.8899,0.013222,0.016335,2.663,0.19181
3,0.529287,10.8909,0.0082069,0.012843,2.6821,0.12233
3,0.52905,10.8917,0.0041701,0.009953,2.6944,0.058445
3,0.528617,10.8923,0.00098198,0.0076942,2.7002,0.0017383
3,0.528008,10.8929,-0.0015107,0.0060099,2.7004,-0.046782
3,0.527242,10.8934,-0.0034873,0.0048073,2.6957,-0.087291
3,0.526397,10.8939,-0.0050961,0.0039045,2.687,-0.12136
3,0.525461,10.8942,-0.0063744,0.0031511,2.6748,-0.14861
3,0.524253,10.8943,-0.0073464,0.0025147,2.66,-0.16791
3,0.522753,10.8939,-0.008111,0.0019882,2.6432,-0.17778
3,0.521157,10.893,-0.0087106,0.0015461,2.6254,-0.17616
3,0.519678,10.892,-0.0091474,0.0011672,2.6078,-0.16376
3,0.518442,10.8912,-0.009443,0.00085368,2.5914,-0.14435
3,0.517446,10.8907,-0.0096546,0.00059435,2.577,-0.11946
3,0.516635,10.8908,-0.0097835,0.00037323,2.565,-0.086849
3,0.515885,10.8911,-0.0098244,0.00018373,2.5564,-0.047726
3,0.515093,10.8917,-0.0098319,6.29E-07,2.5516,-0.0053895
3,0.51428,10.8921,-0.0098052,-0.00014426,2.5511,0.037333
3,0.513489,10.8924,-0.0096384,-0.0001325,2.5548,0.079537
3,0.512677,10.8927,-0.0093161,0.0001273,2.5627,0.12152
3,0.511834,10.893,-0.0089573,0.00058572,2.5749,0.16148
3,0.510992,10.8932,-0.0086671,0.0011426,2.591,0.19796
3,0.510164,10.8934,-0.0084862,0.0017811,2.6108,0.23116
3,0.509307,10.8935,-0.0083498,0.002296,2.6339,0.26213
3,0.508441,10.8937,-0.0083158,0.0018863,2.6602,0.29127
3,0.507593,10.8938,-0.0087419,-0.00075602,2.6893,0.31768
3,0.506733,10.8939,-0.010213,-0.0069168,2.7211,0.33883
3,0.505851,10.894,-0.013352,-0.01691,2.7549,0.34878
3,0.504976,10.894,-0.018291,-0.029711,2.7898,0.34319
3,0.504121,10.8941,-0.024621,-0.043894,2.8241,0.32086
3,0.503242,10.8942,-0.03201,-0.058951,2.8562,0.28054
3,0.502344,10.8943,-0.040301,-0.0755,2.8843,0.22395
3,0.50147,10.8948,-0.049345,-0.094225,2.9067,0.15457
3,0.500746,10.8953,-0.058985,-0.11509,2.9221,0.07414
3,0.500003,10.8945,-0.069125,-0.13767,2.9295,-0.01724
3,0.498401,10.8896,-0.079705,-0.16199,2.9278,-0.11764
3,0.494667,10.8778,-0.09063,-0.18852,2.9161,-0.22453
3,0.487577,10.8583,-0.10181,-0.21761,2.8936,-0.33564
3,0.476907,10.833,-0.11323,-0.2492,2.86,-0.44798
3,0.463434,10.805,-0.12486,-0.2833,2.8152,-0.55918
3,0.447814,10.7751,-0.13662,-0.32025,2.7593,-0.66626
3,0.43039,10.7422,-0.1485,-0.36043,2.6927,-0.76768
3,0.411474,10.7049,-0.16052,-0.40362,2.6159,-0.86488
3,0.391337,10.6633,-0.17276,-0.4484,2.5294,-0.96001
3,0.370191,10.6183,-0.18507,-0.49217,2.4334,-1.0533
3,0.348182,10.5698,-0.19654,-0.53173,2.3281,-1.1412
3,0.325474,10.5168,-0.20586,-0.5642,2.214,-1.217
3,0.302226,10.4587,-0.20972,-0.57447,2.0923,-1.2615
3,0.278518,10.3956,-0.21058,-0.58086,1.9661,-1.2863
3,0.254404,10.3275,-0.20906,-0.58638,1.8375,-1.2935
3,0.229994,10.2537,-0.20574,-0.59227,1.7082,-1.285
3,0.205338,10.1734,-0.20088,-0.59737,1.5797,-1.2628
3,0.180439,10.0875,-0.19473,-0.6002,1.4534,-1.2291
3,0.155222,9.99854,-0.1875,-0.60084,1.3305,-1.1853
3,0.129871,9.9102,-0.17937,-0.6004,1.2119,-1.1328
3,0.10532,9.82617,-0.17046,-0.59903,1.0987,-1.073
3,0.0829427,9.74943,-0.1591,-0.57254,0.99136,-0.99732
3,0.0681384,9.70935,-0.15524,-0.5721,0.89163,-0.63453
3,0.0557547,9.6713,-0.1507,-0.56883,0.82818,-0.61487
3,0.0453048,9.6322,-0.14538,-0.56223,0.76669,-0.59142
3,0.0363316,9.59054,-0.1392,-0.55122,0.70755,-0.56525
3,0.0286352,9.54745,-0.13205,-0.53446,0.65102,-0.53668
3,0.0220128,9.50452,-0.12369,-0.51126,0.59735,-0.50396
3,0.0163281,9.46167,-0.11381,-0.48215,0.54696,-0.46417
3,0.0114495,9.41752,-0.10217,-0.4487,0.50054,-0.41487
3,0.00726632,9.37175,-0.08914,-0.41311,0.45905,-0.3567
3,0.00726632,9.37175,-0.08914,-0.41311,0.42338,-0.3567
4,-0.0140196,9.07079,0.099943,0.30217,-0.26019,0.46694
4,-0.006636,9.08136,0.10215,0.30408,-0.2135,0.48169
4,-0.000146056,9.08967,0.10234,0.31397,-0.16533,0.48049
4,0.00548613,9.09618,0.1004,0.33203,-0.11728,0.46469
4,0.0106588,9.10337,0.097109,0.35741,-0.070813,0.441
4,0.0164121,9.11497,0.093602,0.38851,-0.026713,0.41748
4,0.0234092,9.1342,0.090794,0.42339,0.015034,0.40069
4,0.0317116,9.16372,0.088635,0.46021,0.055103,0.39056
4,0.0410807,9.20562,0.086362,0.4976,0.094159,0.38205
4,0.0509769,9.25995,0.083791,0.53531,0.13236,0.3738
4,0.0611775,9.32458,0.081019,0.57448,0.16974,0.36588
4,0.0717089,9.39742,0.078034,0.61677,0.20633,0.35773
4,0.082514,9.47734,0.074822,0.66365,0.2421,0.34923
4,0.0933876,9.5636,0.071631,0.71545,0.27703,0.34076
4,0.104173,9.65524,0.06834,0.76946,0.3111,0.33599
4,0.114859,9.75075,0.064163,0.82144,0.3447,0.3387
4,0.125029,9.84792,0.058279,0.86803,0.37857,0.34851
4,0.133837,9.94417,0.050036,0.90705,0.41342,0.36674
4,0.140557,10.0377,0.039235,0.93736,0.4501,0.39284
4,0.14513,10.1286,0.026035,0.95971,0.48938,0.42589
4,0.148018,10.2197,0.010317,0.97631,0.53197,0.46906
4,0.149433,10.3149,-0.0077592,0.98867,0.57888,0.51875
4,0.149498,10.417,-0.02759,0.99732,0.63075,0.56772
4,0.148749,10.5271,-0.049069,1.0026,0.68752,0.60593
4,0.147339,10.6423,-0.072728,1.0054,0.74812,0.6283
4,0.144739,10.7579,-0.09904,1.0068,0.81095,0.64077
4,0.139968,10.8703,-0.12798,1.0087,0.87502,0.64145
4,0.131783,10.9778,-0.15885,1.0138,0.93917,0.62876
4,0.11955,11.0803,-0.19036,1.0253,1.002,0.60502
4,0.103046,11.1794,-0.22184,1.0441,1.0625,0.57329
4,0.0818122,11.2772,-0.25343,1.0683,1.1199,0.53975
4,0.0561906,11.3748,-0.28499,1.0948,1.1738,0.51026
4,0.0273344,11.472,-0.31637,1.1202,1.2249,0.48694
4,-0.00475056,11.5688,-0.34785,1.1423,1.2736,0.46859
4,-0.0412834,11.6659,-0.37955,1.1618,1.3204,0.44565
4,-0.0832201,11.7643,-0.41125,1.1813,1.365,0.4037
4,-0.13093,11.8652,-0.44216,1.2022,1.4054,0.3372
4,-0.183864,11.9719,-0.47094,1.2241,1.4391,0.23806
4,-0.240159,12.0883,-0.49681,1.2463,1.4629,0.1033
4,-0.298549,12.2168,-0.51904,1.2681,1.4732,-0.063351
4,-0.358844,12.3564,-0.53634,1.2901,1.4669,-0.26211
4,-0.420544,12.5046,-0.54833,1.3138,1.4407,-0.48168
4,-0.483247,12.6574,-0.55564,1.3412,1.3925,-0.70545
4,-0.546953,12.8116,-0.55809,1.3738,1.322,-0.91291
4,-0.611751,12.966,-0.55481,1.4115,1.2307,-1.0961
4,-0.677768,13.1205,-0.54526,1.4527,1.1211,-1.2666
4,-0.744359,13.2746,-0.52904,1.4957,0.99439,-1.4149
4,-0.810096,13.4261,-0.50648,1.5376,0.85291,-1.5285
4,-0.874074,13.5729,-0.47882,1.5736,0.70005,-1.6035
4,-0.935042,13.7155,-0.44658,1.5994,0.5397,-1.643
4,-0.990876,13.8574,-0.40969,1.6125,0.3754,-1.6614
4,-1.04048,14.0024,-0.36835,1.6118,0.20926,-1.6707
4,-1.08394,14.1543,-0.32258,1.5995,0.042195,-1.6738
4,-1.12093,14.3165,-0.27272,1.5793,-0.12519,-1.6699
4,-1.15091,14.489,-0.21944,1.5545,-0.29218,-1.656
4,-1.17374,14.6697,-0.16319,1.527,-0.45777,-1.6264
4,-1.18901,14.8566,-0.10471,1.4979,-0.62041,-1.5774
4,-1.19683,15.047,-0.045035,1.4689,-0.77816,-1.4989
4,-1.1978,15.2356,0.015194,1.4407,-0.92805,-1.3827
4,-1.19171,15.4157,0.07497,1.411,-1.0663,-1.2275
4,-1.17823,15.5813,0.1324,1.3754,-1.1891,-1.0354
4,-1.15723,15.7282,0.18605,1.33,-1.2926,-0.81833
4,-1.1284,15.8564,0.23535,1.2721,-1.3744,-0.59088
4,-1.09238,15.9701,0.27989,1.2005,-1.4335,-0.36687
4,-1.05064,16.075,0.3197,1.1164,-1.4702,-0.15026
4,-1.00415,16.1744,0.35512,1.023,-1.4852,0.064477
4,-0.953769,16.2704,0.3861,0.92245,-1.4788,0.26933
4,-0.900166,16.3639,0.41292,0.81694,-1.4519,0.45443
4,-0.843685,16.4543,0.43561,0.71048,-1.4064,0.61324
4,-0.785102,16.5376,0.45338,0.60843,-1.3451,0.74384
4,-0.726082,16.6082,0.46554,0.5155,-1.2707,0.85262
4,-0.668372,16.6623,0.47162,0.43552,-1.1855,0.94399
4,-0.613233,16.6986,0.47104,0.36906,-1.0911,1.0172
4,-0.561143,16.7175,0.46426,0.31269,-0.98933,1.0722
4,-0.511508,16.7219,0.45255,0.26189,-0.88211,1.1125
4,-0.463511,16.7157,0.43677,0.21363,-0.77086,1.1411
4,-0.416815,16.7015,0.41772,0.16654,-0.65675,1.1592
4,-0.370985,16.6809,0.39597,0.1201,-0.54083,1.1644
4,-0.326569,16.6566,0.3719,0.075172,-0.42439,1.1533
4,-0.284956,16.6325,0.34603,0.035127,-0.30907,1.1247
4,-0.247147,16.6123,0.31932,0.0045719,-0.1966,1.08
4,-0.214,16.5993,0.29204,-0.019405,-0.088596,1.0192
4,-0.186329,16.5945,0.2658,-0.031791,0.01332,0.95194
4,-0.163871,16.5955,0.24092,-0.033865,0.10851,0.88118
5,0.024148,9.08638,0.014075,0.016937,0.24207,-0.031023
5,0.0259681,9.08725,0.015002,0.018675,0.23897,-0.044094
5,0.0277265,9.08866,0.015677,0.019638,0.23456,-0.050965
5,0.029399,9.09039,0.015921,0.01925,0.22947,-0.055434
5,0.0309555,9.09227,0.015465,0.017319,0.22392,-0.0608
5,0.032417,9.09422,0.014258,0.014664,0.21784,-0.068541
5,0.0337666,9.09617,0.012433,0.012789,0.21099,-0.078102
5,0.0350126,9.09808,0.010153,0.012576,0.20318,-0.088708
5,0.0361631,9.09992,0.0075827,0.013593,0.19431,-0.099678
5,0.0372264,9.10167,0.004842,0.015019,0.18434,-0.11099
5,0.0382229,9.10331,0.0020292,0.016418,0.17324,-0.17614
5,0.0406498,9.10692,-0.0016788,0.01819,0.15563,-0.19559
5,0.0429602,9.10994,-0.0056032,0.019702,0.13607,-0.21529
5,0.0448452,9.1114,-0.0099721,0.020827,0.11454,-0.23714
5,0.0457992,9.11062,-0.014917,0.02143,0.090826,-0.26301
5,0.0455354,9.10837,-0.020292,0.02161,0.064525,-0.29211
5,0.0440405,9.10684,-0.025684,0.021598,0.035314,-0.32087
5,0.0414087,9.10776,-0.030769,0.021295,0.0032268,-0.34681
5,0.0377968,9.11085,-0.035549,0.019437,-0.031454,-0.37022
5,0.0333478,9.11491,-0.040118,0.014417,-0.068477,-0.39241
5,0.0282063,9.11921,-0.044345,0.0051859,-0.10772,-0.41253
5,0.0226104,9.12363,-0.048893,-0.0094113,-0.14897,-0.42075
5,0.0165201,9.12807,-0.05305,-0.026627,-0.19105,-0.42504
5,0.00945479,9.13204,-0.056555,-0.043962,-0.23355,-0.42363
5,0.00112229,9.13513,-0.058948,-0.060007,-0.27591,-0.41471
5,-0.00816642,9.13744,-0.059974,-0.075084,-0.31738,-0.39742
5,-0.0176012,9.13937,-0.059644,-0.090578,-0.35713,-0.37205
5,-0.0265252,9.14067,-0.058134,-0.10717,-0.39433,-0.33953
5,-0.0349343,9.13879,-0.05566,-0.12367,-0.42828,-0.30124
5,-0.0430097,9.13051,-0.052377,-0.1387,-0.45841,-0.25807
5,-0.0504668,9.11369,-0.048417,-0.15191,-0.48421,-0.21186
5,-0.057136,9.0881,-0.044009,-0.16364,-0.5054,-0.16592
5,-0.0631402,9.05669,-0.039126,-0.17412,-0.52199,-0.12088
5,-0.0682653,9.02348,-0.033276,-0.1831,-0.53408,-0.072549
5,-0.0720971,8.99061,-0.026166,-0.19033,-0.54133,-0.016937
5,-0.0744116,8.9582,-0.018106,-0.19606,-0.54303,0.044627
5,-0.0752469,8.92568,-0.0099044,-0.20081,-0.53857,0.10662
5,-0.0748588,8.89343,-0.0022182,-0.20445,-0.5279,0.16466
5,-0.0735242,8.8635,0.0049565,-0.20452,-0.51144,0.21898
5,-0.0714066,8.83751,0.011793,-0.19783,-0.48954,0.27153
5,-0.0686282,8.81538,0.018002,-0.18232,-0.46239,0.31997
5,-0.0654084,8.79635,0.023389,-0.1579,-0.43039,0.3587
5,-0.0617313,8.77983,0.028095,-0.12744,-0.39452,0.38444
5,-0.0570967,8.76584,0.032166,-0.094453,-0.35608,0.39819
5,-0.0512094,8.75447,0.035218,-0.060844,-0.31626,0.4007
5,-0.0443778,8.74532,0.036407,-0.027268,-0.27619,0.38908
5,-0.0374101,8.73774,0.034922,0.0058781,-0.23728,0.35883
5,-0.0309615,8.73176,0.031516,0.037649,-0.2014,0.31464
5,-0.0250213,8.72976,0.027566,0.066301,-0.16993,0.26554
5,-0.0194227,8.73485,0.024312,0.090729,-0.14338,0.22054
5,-0.0144621,8.74905,0.022021,0.11113,-0.12132,0.18357
5,-0.0103584,8.77229,0.020159,0.12827,-0.10297,0.1525
5,-0.00695027,8.8018,0.01923,0.14265,-0.087718,0.13065
5,-0.00393342,8.83457,0.019653,0.15451,-0.074653,0.11913
5,-0.00166142,8.86892,0.022004,0.16443,-0.062741,0.12172
5,-0.0015982,8.90367,0.026008,0.17406,-0.050569,0.14234
5,-0.00540233,8.93744,0.030676,0.18533,-0.036335,0.18029
5,-0.0118267,8.96872,0.035572,0.19953,-0.018306,0.23507
5,-0.0183918,8.9961,0.039753,0.21621,0.0052018,0.29543
5,-0.0227831,9.01896,0.04258,0.23356,0.034744,0.34813
5,-0.0245864,9.03764,0.04509,0.24985,0.069558,0.39252
5,-0.025091,9.05288,0.048424,0.26386,0.10881,0.43569
5,-0.023271,9.06514,0.052938,0.27519,0.15238,0.48483
5,-0.0177905,9.07487,0.058904,0.28402,0.20086,0.54214
5,-0.00720216,9.08332,0.066906,0.2915,0.25508,0.61028
5,0.00763808,9.09345,0.078455,0.29992,0.3161,0.69786
5,0.0239425,9.1084,0.095545,0.31149,0.38589,0.81677
5,0.0401816,9.13081,0.11684,0.32707,0.46757,0.95862
5,0.0544844,9.16217,0.13948,0.34657,0.56343,1.1058
5,0.0657375,9.20197,0.16092,0.3696,0.67401,1.2424
5,0.0757182,9.24875,0.18059,0.39561,0.79825,1.3641
5,0.0864889,9.30002,0.19963,0.42414,0.93466,1.4777
5,0.0989265,9.35219,0.21691,0.45497,1.0824,1.5765
5,0.113875,9.40262,0.23098,0.48782,1.2401,1.6539
5,0.132151,9.45193,0.24032,0.52149,1.4055,1.6987
5,0.155313,9.50351,0.24572,0.55312,1.5753,1.704
5,0.185687,9.56042,0.2499,0.57963,1.7457,1.6754
5,0.221858,9.62286,0.25437,0.59843,1.9133,1.6177
5,0.26056,9.68925,0.26115,0.60804,2.0751,1.5532
5,0.299066,9.75816,0.27149,0.60903,2.2304,1.5065
5,0.336594,9.82886,0.28354,0.6029,2.381,1.4814
5,0.374168,9.90115,0.29496,0.59216,2.5292,1.4691
5,0.410543,9.97509,0.30463,0.5804,2.6761,1.4577
5,0.444162,10.0505,0.3116,0.57026,2.8218,1.44
5,0.473436,10.1263,0.31534,0.56122,2.9658,1.4107
5,0.499087,10.1997,0.31506,0.55009,3.1069,1.36
5,0.523743,10.2677,0.30931,0.53404,3.2429,1.2747
5,0.548918,10.3277,0.2989,0.51285,3.3704,1.1559
5,0.576787,10.3782,0.2859,0.48783,3.486,1.0148
5,0.608726,10.42,0.27191,0.46011,3.5874,0.86414
5,0.642795,10.4545,0.2575,0.43043,3.6739,0.7095
5,0.676402,10.4843,0.24231,0.39899,3.7448,0.54968
5,0.708192,10.513,0.2271,0.36538,3.7998,0.39061
5,0.737084,10.5431,0.2128,0.3294,3.8388,0.23657
5,0.762829,10.5744,0.20039,0.29189,3.8625,0.094324
5,0.785442,10.6037,0.18961,0.25496,3.8719,-0.02735
5,0.804308,10.6285,0.1792,0.22075,3.8692,-0.12545
5,0.819665,10.6486,0.1684,0.19064,3.8566,-0.19861
5,0.832369,10.6649,0.15596,0.16524,3.8368,-0.25733
5,0.842879,10.6784,0.14102,0.14426,3.8111,-0.31686
5,0.851587,10.6897,0.12464,0.12693,3.7794,-0.38127
5,0.858791,10.6991,0.10837,0.1121,3.7412,-0.4459
5,0.864737,10.7058,0.093226,0.098005,3.6967,-0.50369
5,0.869762,10.7093,0.079657,0.0829,3.6463,-0.55297
5,0.874221,10.7101,0.066878,0.066021,3.591,-0.59669
5,0.878305,10.7096,0.053905,0.047523,3.5313,-0.63204
5,0.882144,10.7092,0.040343,0.027791,3.4681,-0.65271
5,0.885728,10.7089,0.02557,0.0070189,3.4028,-0.65593
5,0.888706,10.7087,0.0093994,-0.014983,3.3373,-0.64236
5,0.890775,10.7085,-0.007821,-0.038922,3.273,-0.61681
5,0.892079,10.7084,-0.025877,-0.065565,3.2113,-0.58255
5,0.893144,10.7085,-0.044454,-0.094344,3.1531,-0.54017
5,0.894644,10.709,-0.063336,-0.12259,3.0991,-0.49167
5,0.896398,10.7089,-0.082576,-0.14761,3.0499,-0.43832
5,0.896585,10.7064,-0.1023,-0.16858,3.0061,-0.3826
5,0.893253,10.6987,-0.12253,-0.18609,2.9678,-0.33413
5,0.884994,10.6841,-0.14318,-0.20102,2.9344,-0.30248
5,0.870804,10.6626,-0.16416,-0.21369,2.9041,-0.29472
5,0.851168,10.6349,-0.18522,-0.22436,2.8747,-0.3135
5,0.827237,10.6005,-0.20614,-0.23346,2.8433,-0.35352
5,0.799833,10.5586,-0.22693,-0.24133,2.808,-0.40986
5,0.769883,10.5104,-0.24782,-0.24842,2.767,-0.4805
5,0.738065,10.4607,-0.26923,-0.25495,2.7189,-0.56566
5,0.704609,10.4141,-0.2909,-0.26025,2.6624,-0.66196
5,0.669613,10.3729,-0.31106,-0.26246,2.5962,-0.75784
5,0.633253,10.3374,-0.32775,-0.25903,2.5204,-0.84525
5,0.595789,10.3071,-0.33954,-0.24824,2.4359,-0.9206
5,0.557412,10.2815,-0.34544,-0.23047,2.3438,-0.97955
5,0.518267,10.26,-0.34586,-0.20641,2.2458,-1.0235
5,0.4785,10.2416,-0.34209,-0.17469,2.1435,-1.0571
5,0.438217,10.2257,-0.33343,-0.14454,2.0378,-1.0701
5,0.397496,10.2117,-0.32263,-0.10685,1.9308,-1.0794
5,0.356188,10.1991,-0.31027,-0.06516,1.8228,-1.0866
5,0.314591,10.1884,-0.29656,-0.023795,1.7142,-1.0917
5,0.274467,10.1815,-0.28164,0.014719,1.605,-1.0947
5,0.23776,10.1807,-0.26566,0.049156,1.4955,-1.0908
5,0.205905,10.1876,-0.24883,0.078936,1.3865,-1.0753
5,0.179921,10.2017,-0.2313,0.10414,1.2789,-1.0457
5,0.159439,10.2221,-0.21317,0.12544,1.1744,-1.0004
5,0.143048,10.2512,-0.19328,0.13463,1.0743,-0.93356
5,0.132967,10.2695,-0.18226,0.15007,0.98097,-0.6355
5,0.124626,10.2967,-0.16976,0.16621,0.91742,-0.61182
5,0.117529,10.3303,-0.15544,0.18341,0.85623,-0.5748
5,0.111486,10.3665,-0.13916,0.20153,0.79875,-0.52287
5,0.106331,10.4024,-0.12169,0.2196,0.74647,-0.46075
5,0.101924,10.4357,-0.10416,0.23586,0.70039,-0.39445
5,0.0981195,10.465,-0.087672,0.24868,0.66095,-0.32854
5,0.0948069,10.4898,-0.073324,0.25768,0.62809,-0.2698
5,0.0919322,10.5109,-0.06137,0.26251,0.60111,-0.21987
5,0.0919322,10.5109,-0.06137,0.26251,0.57912,-0.21987
6,-0.1038,17.6632,0.047836,-0.49564,0.089703,0.069649
6,-0.09496,17.6097,0.052826,-0.5481,0.096668,0.10059
6,-0.0869064,17.5571,0.056744,-0.58204,0.10673,0.12132
6,-0.0795675,17.5041,0.060627,-0.60338,0.11886,0.13704
6,-0.0729494,17.4511,0.063713,-0.61779,0.13256,0.14633
6,-0.0675575,17.3996,0.065271,-0.62869,0.1472,0.14788
6,-0.0635997,17.3504,0.065431,-0.63636,0.16198,0.143
6,-0.0607148,17.3037,0.064565,-0.63944,0.17628,0.1328
6,-0.0586104,17.2585,0.062958,-0.63702,0.18956,0.11707
6,-0.0570741,17.2133,0.06085,-0.62962,0.20127,0.096418
6,-0.0559639,17.1675,0.058439,-0.61857,0.21091,0.22026
6,-0.0456919,17.0603,0.054225,-0.60834,0.23294,0.16834
6,-0.0357069,16.9647,0.050093,-0.59461,0.24977,0.12501
6,-0.0249853,16.8788,0.046126,-0.57674,0.26227,0.090966
6,-0.014602,16.7983,0.042399,-0.55526,0.27137,0.061709
6,-0.00589375,16.7201,0.03941,-0.53149,0.27754,0.037002
6,0.000889172,16.645,0.037446,-0.50656,0.28124,0.017168
6,0.00596085,16.5761,0.036278,-0.48086,0.28296,0.001333
6,0.00952474,16.5165,0.035711,-0.45375,0.28309,-0.010628
6,0.011815,16.4669,0.035593,-0.42399,0.28203,-0.019067
6,0.0130778,16.426,0.035826,-0.39106,0.28012,-0.024674
6,0.0134908,16.3931,0.03131,-0.3252,0.27765,-0.05438
6,0.0132796,16.3679,0.026014,-0.26433,0.27222,-0.084032
6,0.0126837,16.3506,0.019184,-0.2082,0.26381,-0.11608
6,0.0118486,16.3406,0.012126,-0.15437,0.2522,-0.14891
6,0.0112629,16.3366,0.0062868,-0.10038,0.23731,-0.18216
6,0.0112918,16.3373,0.0019631,-0.046395,0.2191,-0.21647
6,0.0118421,16.342,-0.0010544,0.004763,0.19745,-0.24755
6,0.0128107,16.351,-0.0029848,0.049882,0.1727,-0.27032
6,0.0141122,16.3653,-0.0038644,0.087576,0.14566,-0.28377
6,0.015689,16.3854,-0.0035062,0.1182,0.11729,-0.28796
6,0.0169276,16.4099,-0.0022491,0.14242,0.088491,-0.28653
6,0.0163202,16.4361,-0.0010775,0.16043,0.059838,-0.28658
6,0.0133828,16.4624,-0.00087819,0.17235,0.031181,-0.29242
6,0.00964975,16.4895,-0.0022599,0.17871,0.0019393,-0.30461
6,0.00667994,16.5194,-0.0054166,0.18049,-0.028521,-0.32151
6,0.00481539,16.5522,-0.010127,0.17867,-0.060672,-0.34001
6,0.00385202,16.5856,-0.016144,0.1738,-0.094673,-0.35768
6,0.0035552,16.6163,-0.02326,0.16587,-0.13044,-0.37437
6,0.0040862,16.642,-0.031357,0.15449,-0.16788,-0.39155
6,0.00606542,16.6624,-0.040281,0.13962,-0.20703,-0.40954
6,0.00899264,16.6779,-0.049223,0.12246,-0.24799,-0.42599
6,0.0111247,16.6887,-0.056719,0.105,-0.29058,-0.43676
6,0.0109273,16.6953,-0.062045,0.088591,-0.33426,-0.43931
6,0.00732884,16.698,-0.065859,0.073052,-0.37819,-0.42976
6,0.000429661,16.6976,-0.069139,0.057262,-0.42117,-0.40374
6,-0.00896316,16.6946,-0.072228,0.04081,-0.46154,-0.36145
6,-0.0204452,16.6896,-0.075085,0.024646,-0.49769,-0.31256
6,-0.0337083,16.6827,-0.077647,0.010189,-0.52894,-0.26569
6,-0.0486027,16.6743,-0.080187,-0.001515,-0.55551,-0.22182
6,-0.064873,16.6646,-0.08352,-0.0093808,-0.57769,-0.18311
6,-0.0815182,16.6548,-0.087652,-0.011795,-0.596,-0.14914
6,-0.0971177,16.646,-0.091419,-0.0071908,-0.61092,-0.11549
6,-0.110707,16.6395,-0.093792,0.0055942,-0.62247,-0.077589
6,-0.122068,16.6356,-0.093932,0.027043,-0.63023,-0.032552
6,-0.131598,16.6339,-0.091652,0.056435,-0.63348,0.015887
6,-0.13964,16.6338,-0.087417,0.092326,-0.63189,0.060596
6,-0.146319,16.6349,-0.081504,0.13342,-0.62583,0.096065
6,-0.151739,16.6367,-0.074014,0.1788,-0.61623,0.12046
6,-0.156289,16.639,-0.064882,0.22786,-0.60418,0.13719
6,-0.160974,16.6437,-0.05434,0.27995,-0.59046,0.14865
6,-0.166311,16.6543,-0.043387,0.33392,-0.5756,0.15335
6,-0.171713,16.6744,-0.033445,0.38802,-0.56026,0.1483
6,-0.176656,16.7065,-0.025661,0.44027,-0.54543,0.13005
6,-0.180534,16.7521,-0.020498,0.48916,-0.53243,0.095052
6,-0.182874,16.8104,-0.017675,0.53404,-0.52292,0.045214
6,-0.183797,16.8793,-0.016853,0.57507,-0.5184,-0.013079
6,-0.183454,16.9564,-0.017733,0.61288,-0.51971,-0.070048
6,-0.181736,17.0403,-0.019954,0.64844,-0.52671,-0.11857
6,-0.178367,17.13,-0.023187,0.68222,-0.53857,-0.15935
6,-0.173553,17.2245,-0.026803,0.71278,-0.55451,-0.19298
6,-0.168293,17.3226,-0.030024,0.7369,-0.5738,-0.21852
6,-0.164008,17.4221,-0.030926,0.7519,-0.59565,-0.23086
6,-0.162029,17.5201,-0.025959,0.75641,-0.61874,-0.2202
6,-0.163064,17.6139,-0.012012,0.75039,-0.64076,-0.17764
6,-0.166948,17.702,0.013017,0.73555,-0.65853,-0.094373
6,-0.173345,17.7839,0.05088,0.71422,-0.66796,0.03846
6,-0.181784,17.8607,0.10102,0.68798,-0.66412,0.22239
6,-0.191647,17.9336,0.16076,0.65767,-0.64188,0.45051
6,-0.202663,18.0035,0.228,0.62414,-0.59683,0.71335
6,-0.214579,18.0692,0.30164,0.5866,-0.52549,1.0043
6,-0.226359,18.1281,0.37788,0.54243,-0.42506,1.3105
6,-0.233564,18.1782,0.44342,0.4897,-0.29401,1.5903
6,-0.228574,18.2193,0.48387,0.42786,-0.13498,1.7992
6,-0.204558,18.2529,0.49389,0.35645,0.044937,1.9202
6,-0.15684,18.2815,0.47534,0.27883,0.23696,1.9535
6,-0.0820373,18.3077,0.43667,0.20097,0.4323,1.9164
6,0.0185932,18.3323,0.39333,0.12642,0.62394,1.848
6,0.139788,18.3557,0.3573,0.057665,0.80874,1.7798
6,0.277626,18.3783,0.33022,-0.0035017,0.98672,1.7173
6,0.429732,18.3977,0.31054,-0.056314,1.1585,1.659
6,0.587457,18.4075,0.2965,-0.10061,1.3243,1.6033
6,0.722835,18.4015,0.28316,-0.13666,1.4847,1.5367
6,0.805702,18.3758,0.2626,-0.16604,1.6383,1.4355
6,0.824714,18.3268,0.22731,-0.19149,1.7819,1.2782
6,0.783728,18.2596,0.17085,-0.21599,1.9097,1.046
6,0.69999,18.1859,0.088192,-0.2415,2.0143,0.72449
6,0.604879,18.1135,-0.020241,-0.2686,2.0868,0.31543
6,0.522946,18.0489,-0.14903,-0.29747,2.1183,-0.16411
6,0.457784,17.9964,-0.29359,-0.32922,2.1019,-0.69795
6,0.40651,17.9566,-0.45067,-0.36167,2.0321,-1.2742
6,0.366632,17.9269,-0.61134,-0.38779,1.9047,-1.8635
6,0.332748,17.9048,-0.74811,-0.39979,1.7183,-2.3769
6,0.296621,17.8872,-0.83099,-0.39139,1.4806,-2.7175
6,0.250059,17.8699,-0.84872,-0.35751,1.2089,-2.8501
6,0.18486,17.8496,-0.80525,-0.30367,0.92389,-2.79
6,0.0943461,17.8247,-0.71785,-0.24305,0.64489,-2.5912
6,-0.0218882,17.7951,-0.61795,-0.18525,0.38577,-2.3461
6,-0.158282,17.7607,-0.53031,-0.13751,0.15116,-2.126
6,-0.309562,17.7199,-0.45875,-0.10317,-0.061442,-1.9391
6,-0.471617,17.6744,-0.40052,-0.080522,-0.25535,-1.7771
6,-0.63523,17.6319,-0.35317,-0.065133,-0.43307,-1.6365
6,-0.773386,17.6019,-0.31295,-0.053323,-0.59672,-1.5064
6,-0.856287,17.593,-0.27527,-0.04127,-0.74737,-1.3708
6,-0.872734,17.6118,-0.23549,-0.025165,-0.88445,-1.2144
6,-0.82677,17.6523,-0.18826,-0.0017666,-1.0059,-1.0206
6,-0.735716,17.6998,-0.1291,0.030594,-1.108,-0.77929
6,-0.631026,17.743,-0.057034,0.071442,-1.1859,-0.49344
6,-0.53768,17.7739,0.02478,0.11898,-1.2352,-0.17533
6,-0.45972,17.7901,0.11273,0.17205,-1.2528,0.16568
6,-0.394528,17.7956,0.20408,0.22808,-1.2362,0.52409
6,-0.339702,17.7966,0.29407,0.28109,-1.1838,0.88309
6,-0.293148,17.7982,0.36954,0.32359,-1.0955,1.1925
6,-0.253911,17.8047,0.41584,0.34899,-0.97622,1.3964
6,-0.220912,17.8196,0.4278,0.35325,-0.83658,1.473
6,-0.191665,17.846,0.4078,0.34057,-0.68928,1.4366
6,-0.16385,17.8859,0.36475,0.32088,-0.54562,1.3263
6,-0.135957,17.938,0.31461,0.30322,-0.41299,1.1969
6,-0.108722,17.9987,0.27018,0.29418,-0.29329,1.091
6,-0.0840988,18.064,0.23369,0.29469,-0.1842,1.0138
6,-0.0634654,18.1305,0.20143,0.31601,-0.082813,0.94115
6,-0.0470936,18.1941,0.17378,0.34011,0.011302,0.88216
6,-0.0342999,18.2491,0.14952,0.36256,0.099518,0.83217
7,0.0184781,9.42152,-0.065527,-0.3006,-0.063601,-0.022238
7,0.00445404,9.37314,-0.074737,-0.31273,-0.065825,-0.0911
7,-0.00582657,9.32872,-0.081239,-0.32089,-0.074935,-0.14265
7,-0.013472,9.29227,-0.086006,-0.32567,-0.0892,-0.18306
7,-0.019216,9.26479,-0.088354,-0.32691,-0.10751,-0.2083
7,-0.0233938,9.24343,-0.087239,-0.3239,-0.12834,-0.21201
7,-0.0266261,9.22308,-0.082323,-0.31646,-0.14954,-0.1919
7,-0.0303563,9.19986,-0.074708,-0.30506,-0.16873,-0.15608
7,-0.0354842,9.17335,-0.066096,-0.29024,-0.18434,-0.11073
7,-0.0415343,9.14588,-0.057561,-0.27229,-0.19541,-0.056315
7,-0.0470489,9.12092,-0.049446,-0.25149,-0.20104,-0.10136
7,-0.0637324,9.07753,-0.036509,-0.21589,-0.21118,0.013106
7,-0.0790083,9.03645,-0.024855,-0.17936,-0.20987,0.11507
7,-0.0933303,8.99816,-0.014071,-0.14567,-0.19836,0.19477
7,-0.105218,8.96386,-0.0038671,-0.11657,-0.17888,0.25359
7,-0.112381,8.93568,0.0058009,-0.09068,-0.15352,0.29878
7,-0.113239,8.9152,0.015319,-0.063945,-0.12365,0.33592
7,-0.108526,8.90292,0.025873,-0.032163,-0.090053,0.37919
7,-0.100494,8.89909,0.038047,0.006444,-0.052134,0.43673
7,-0.0908882,8.90417,0.050997,0.050285,-0.0084613,0.50214
7,-0.0804146,8.91855,0.062886,0.09477,0.041753,0.55872
7,-0.0685648,8.94137,0.078867,0.14669,0.097625,0.63006
7,-0.0555372,8.97,0.092819,0.19332,0.16063,0.69223
7,-0.0416141,9.00093,0.10528,0.23439,0.22985,0.75145
7,-0.0269502,9.03165,0.1156,0.27054,0.305,0.80471
7,-0.011792,9.06207,0.12269,0.30134,0.38547,0.84304
7,0.00401215,9.09519,0.12586,0.326,0.46977,0.85947
7,0.0213904,9.13554,0.12572,0.34543,0.55572,0.85781
7,0.0406105,9.18624,0.12341,0.3616,0.6415,0.83571
7,0.0604593,9.24645,0.11947,0.37595,0.72507,0.7817
7,0.0787224,9.31046,0.11396,0.38961,0.80324,0.68758
7,0.094002,9.37091,0.10673,0.40462,0.872,0.55705
7,0.106629,9.4231,0.098156,0.42192,0.92771,0.41027
7,0.11722,9.46694,0.088526,0.4404,0.96873,0.27068
7,0.125982,9.50494,0.078217,0.45905,0.9958,0.14801
7,0.132993,9.53836,0.067971,0.47804,1.0106,0.039798
7,0.138491,9.56719,0.058113,0.49757,1.0146,-0.055221
7,0.14292,9.59379,0.047805,0.51687,1.0091,-0.14745
7,0.146321,9.62228,0.036185,0.532,0.99432,-0.24027
7,0.148042,9.65606,0.023426,0.53941,0.97029,-0.32593
7,0.147505,9.69777,0.010825,0.54109,0.9377,-0.3893
7,0.144902,9.7506,-0.0003571,0.5411,0.89877,-0.4267
7,0.140775,9.81383,-0.0098049,0.54399,0.8561,-0.44957
7,0.135438,9.88173,-0.017779,0.55157,0.81114,-0.46772
7,0.129484,9.94974,-0.024487,0.56217,0.76437,-0.48643
7,0.12415,10.0182,-0.029918,0.57495,0.71572,-0.50401
7,0.120237,10.0903,-0.034168,0.59032,0.66532,-0.51901
7,0.117001,10.1693,-0.037624,0.60621,0.61342,-0.53317
7,0.11298,10.2502,-0.04053,0.61841,0.5601,-0.54215
7,0.107312,10.3253,-0.042604,0.62322,0.50589,-0.53541
7,0.100372,10.3926,-0.043596,0.61774,0.45235,-0.5057
7,0.0932878,10.4531,-0.043739,0.59883,0.40178,-0.4546
7,0.0870194,10.5111,-0.043338,0.56751,0.35632,-0.39457
7,0.0816627,10.5701,-0.042492,0.52991,0.31686,-0.34178
7,0.0770075,10.6293,-0.041668,0.49095,0.28268,-0.30761
7,0.0731564,10.6883,-0.041999,0.45074,0.25192,-0.29426
7,0.0701547,10.7478,-0.044228,0.40604,0.2225,-0.2973
7,0.0676715,10.8062,-0.047533,0.35314,0.19277,-0.30451
7,0.0652619,10.8591,-0.050155,0.29568,0.16232,-0.30773
7,0.0628341,10.9025,-0.050817,0.24113,0.13154,-0.30656
7,0.0603124,10.9333,-0.049357,0.19232,0.10089,-0.3045
7,0.0574233,10.9483,-0.046248,0.1506,0.070436,-0.3025
7,0.0540988,10.9489,-0.041932,0.11308,0.040186,-0.2981
7,0.0504535,10.9416,-0.036038,0.076461,0.010376,-0.28733
7,0.046148,10.9316,-0.027918,0.041149,-0.018356,-0.26434
7,0.0401512,10.9196,-0.017745,0.0075331,-0.044791,-0.23015
7,0.0317813,10.9024,-0.0060462,-0.025212,-0.067806,-0.18766
7,0.0219352,10.8756,0.007015,-0.056717,-0.086572,-0.13571
7,0.0126711,10.8416,0.021446,-0.084951,-0.10014,-0.072256
7,0.00567833,10.8075,0.037077,-0.10766,-0.10737,0.00026956
7,0.00165713,10.7773,0.053725,-0.12301,-0.10734,0.078582
7,0.000791772,10.7543,0.071329,-0.12946,-0.099483,0.16031
7,0.00315577,10.7372,0.089754,-0.12743,-0.083452,0.25054
7,0.00958647,10.723,0.10884,-0.11956,-0.058398,0.35885
7,0.0211715,10.7116,0.12868,-0.10783,-0.022513,0.49433
7,0.0376654,10.7033,0.14973,-0.09229,0.02692,0.65561
7,0.0580624,10.6974,0.17223,-0.071703,0.09248,0.8285
7,0.0817015,10.6928,0.19571,-0.044379,0.17533,0.99734
7,0.108154,10.6892,0.2191,-0.011976,0.27506,1.1533
7,0.136987,10.6872,0.2416,0.021846,0.39039,1.296
7,0.167763,10.6872,0.26274,0.05509,0.52,1.4242
7,0.200081,10.6893,0.28179,0.085817,0.66242,1.5349
7,0.233608,10.694,0.29786,0.11395,0.81591,1.6286
7,0.268135,10.7024,0.30973,0.13987,0.97877,1.7045
7,0.303516,10.716,0.31618,0.1625,1.1492,1.757
7,0.339604,10.7351,0.31738,0.18132,1.3249,1.7864
7,0.37625,10.759,0.31439,0.19718,1.5036,1.7971
7,0.413358,10.7868,0.30795,0.2113,1.6833,1.7886
7,0.450874,10.8176,0.29853,0.22414,1.8621,1.7585
7,0.488872,10.8512,0.28657,0.23536,2.038,1.71
7,0.527139,10.8875,0.27249,0.24463,2.209,1.6476
7,0.564376,10.9259,0.2567,0.25226,2.3737,1.5745
7,0.59888,10.9651,0.23951,0.25852,2.5312,1.4898
7,0.629043,11.0027,0.22118,0.26278,2.6802,1.3897
7,0.653522,11.0366,0.20188,0.2636,2.8191,1.2717
7,0.672417,11.066,0.18178,0.25961,2.9463,1.1392
7,0.686837,11.0918,0.16104,0.25045,3.0602,1.0017
7,0.697596,11.1154,0.13976,0.2367,3.1604,0.86604
7,0.705206,11.1375,0.11801,0.21933,3.247,0.73419
7,0.71012,11.1579,0.095812,0.19892,3.3204,0.60417
7,0.71275,11.1765,0.073372,0.1756,3.3808,0.47686
7,0.713478,11.1939,0.051314,0.14965,3.4285,0.35556
7,0.712633,11.211,0.030013,0.12193,3.4641,0.23978
7,0.710499,11.228,0.0097651,0.093753,3.4881,0.12796
7,0.707286,11.2432,-0.0092163,0.066292,3.5009,0.020559
7,0.703166,11.2543,-0.027249,0.039943,3.5029,-0.083782
7,0.698324,11.2599,-0.044621,0.014393,3.4945,-0.18624
7,0.69287,11.2602,-0.061402,-0.01087,3.4759,-0.28524
7,0.686898,11.2563,-0.077646,-0.036132,3.4474,-0.37887
7,0.680496,11.249,-0.093388,-0.06115,3.4095,-0.4675
7,0.673883,11.2387,-0.10865,-0.085678,3.3627,-0.55206
7,0.667005,11.2252,-0.1235,-0.11032,3.3075,-0.63304
7,0.658906,11.209,-0.138,-0.13644,3.2442,-0.71075
7,0.648573,11.1903,-0.1524,-0.16493,3.1732,-0.78657
7,0.635089,11.1692,-0.16683,-0.19491,3.0945,-0.86198
7,0.617919,11.1458,-0.18128,-0.22407,3.0083,-0.93785
7,0.597595,11.1206,-0.19563,-0.2505,2.9145,-1.0142
7,0.574793,11.0936,-0.20972,-0.27373,2.8131,-1.0899
7,0.549914,11.0652,-0.22358,-0.29439,2.7041,-1.1644
7,0.523344,11.0356,-0.23726,-0.31297,2.5877,-1.238
7,0.49544,11.0051,-0.25099,-0.32961,2.4639,-1.312
7,0.466486,10.9732,-0.26465,-0.34479,2.3327,-1.386
7,0.436624,10.9381,-0.27697,-0.35914,2.1941,-1.4535
7,0.405707,10.8981,-0.2864,-0.37284,2.0487,-1.5059
7,0.373628,10.8534,-0.29159,-0.38555,1.8981,-1.536
7,0.340602,10.8062,-0.29196,-0.39675,1.7445,-1.5407
7,0.307067,10.7589,-0.28825,-0.40653,1.5905,-1.5236
7,0.273429,10.7127,-0.28132,-0.41523,1.4381,-1.489
7,0.239744,10.6675,-0.27172,-0.42291,1.2892,-1.4399
7,0.205967,10.6231,-0.25991,-0.4296,1.1452,-1.3785
7,0.171904,10.5794,-0.24854,-0.42258,1.0074,-1.3203
7,0.13771,10.5357,-0.23614,-0.41479,0.87534,-1.2563
7,0.104961,10.4907,-0.22282,-0.40547,0.74971,-1.1872
7,0.075775,10.4446,-0.20836,-0.39378,0.63099,-1.112
7,0.0519069,10.3981,-0.19256,-0.37985,0.51979,-1.0293
7,0.0339911,10.3523,-0.17551,-0.36505,0.41686,-0.93921
7,0.0211046,10.3075,-0.15763,-0.35097,0.32294,-0.84369
7,0.012155,10.2632,-0.13933,-0.33866,0.23857,-0.74502
7,0.00647546,10.2194,-0.12059,-0.32858,0.16407,-0.64348
7,0.00352746,10.1764,-0.10371,-0.30638,0.099722,-0.55308
7,-0.00163059,10.16,-0.091236,-0.29953,0.044414,-0.40821
7,-0.00578788,10.1436,-0.077308,-0.29184,0.0035924,-0.35109
8,-0.064102,7.4258,-0.0099288,-0.079674,0.28089,-0.51375
8,-0.061627,7.4222,-0.009585,-0.092543,0.22952,-0.49816
8,-0.061934,7.4202,-0.0083114,-0.10642,0.1797,-0.47134
8,-0.065881,7.4193,-0.0064766,-0.12007,0.13257,-0.43878
8,-0.072289,7.4174,-0.004685,-0.13147,0.088687,-0.40626
8,-0.078841,7.4121,-0.0033232,-0.13884,0.048061,-0.37714
8,-0.083776,7.4025,-0.0022806,-0.14186,0.010347,-0.75256
8,-0.085179,7.3874,-0.0027065,-0.14758,-0.064909,-0.71868
8,-0.0868,7.3708,-0.00343,-0.15037,-0.13678,-0.69044
8,-0.088457,7.3514,-0.0042914,-0.15082,-0.20582,-0.6663
8,-0.089972,7.3284,-0.0055656,-0.14955,-0.27245,-0.64814
8,-0.09045,7.3011,-0.0059915,-0.14768,-0.33727,-0.62593
8,-0.08937,7.2697,-0.0039096,-0.14621,-0.39986,-0.58641
8,-0.087082,7.2358,0.0016264,-0.14503,-0.4585,-0.5219
8,-0.084505,7.2033,0.0094956,-0.14241,-0.51069,-0.44086
8,-0.082386,7.1761,0.017342,-0.13617,-0.55477,-0.36157
8,-0.080633,7.1562,0.02336,-0.1251,-0.59093,-0.29794
8,-0.079025,7.1425,0.02636,-0.10848,-0.62073,-0.20328
8,-0.077563,7.1336,0.028763,-0.088646,-0.64105,-0.12558
8,-0.076209,7.1286,0.030652,-0.065299,-0.65361,-0.062382
8,-0.075233,7.1267,0.031978,-0.038489,-0.65985,-0.012413
8,-0.07361,7.1268,0.032377,-0.009018,-0.66109,0.022786
8,-0.069754,7.1278,0.031885,0.022463,-0.65881,0.044998
8,-0.062628,7.1293,0.030932,0.05489,-0.65431,0.05883
8,-0.053298,7.1326,0.029939,0.086125,-0.64843,0.067596
8,-0.044157,7.1398,0.029203,0.11312,-0.64167,0.0735
8,-0.037057,7.1523,0.028516,0.13327,-0.63432,0.075345
8,-0.032459,7.1704,0.026815,0.14622,-0.62679,0.065582
8,-0.029274,7.1935,0.023243,0.15337,-0.62023,0.038447
8,-0.027153,7.2208,0.017352,0.15653,-0.61638,-0.0091116
8,-0.026017,7.2514,0.0098999,0.15753,-0.61729,-0.07083
8,-0.025695,7.2831,0.0017603,0.15775,-0.62438,-0.13953
8,-0.0256,7.3146,-0.0067765,0.15786,-0.63833,-0.21294
8,-0.025219,7.3456,-0.015741,0.15793,-0.65963,-0.29167
8,-0.024627,7.3755,-0.024696,0.15733,-0.68879,-0.3718
8,-0.02398,7.4024,-0.032322,0.15512,-0.72597,-0.44055
8,-0.023602,7.4227,-0.037769,0.15043,-0.77003,-0.48855
8,-0.025396,7.435,-0.04113,0.14291,-0.81888,-0.51541
8,-0.031078,7.4404,-0.043292,0.13272,-0.87042,-0.52789
8,-0.041504,7.4417,-0.04456,0.11997,-0.92321,-0.52936
8,-0.055434,7.4418,-0.044997,0.10541,-0.97615,-0.52192
8,-0.07009,7.4423,-0.04474,0.091056,-1.0283,-0.50657
8,-0.083307,7.4435,-0.044258,0.078184,-1.079,-0.48633
8,-0.094109,7.4451,-0.043978,0.066595,-1.1276,-0.46418
8,-0.10269,7.4472,-0.04389,0.055546,-1.174,-0.43912
8,-0.1088,7.45,-0.043969,0.045603,-1.218,-0.41115
8,-0.11259,7.4532,-0.043949,0.039378,-1.2591,-0.37937
8,-0.11472,7.4562,-0.041906,0.038795,-1.297,-0.32955
8,-0.11586,7.4589,-0.036096,0.043223,-1.33,-0.24886
8,-0.11627,7.4608,-0.025642,0.050235,-1.3549,-0.13093
8,-0.11601,7.4622,-0.011763,0.057188,-1.3679,0.014326
8,-0.11518,7.4652,0.0027791,0.062683,-1.3665,0.16523
8,-0.11412,7.4709,0.01579,0.066683,-1.35,0.30483
8,-0.11317,7.4788,0.02633,0.06959,-1.3195,0.42602
8,-0.11241,7.4866,0.034865,0.0716,-1.2769,0.53325
8,-0.11192,7.4936,0.041439,0.072777,-1.2236,0.62997
8,-0.1115,7.5015,0.046245,0.073309,-1.1606,0.71927
8,-0.10921,7.5126,0.049721,0.073512,-1.0887,0.8058
8,-0.10327,7.5268,0.052288,0.073627,-1.0081,0.88954
8,-0.092789,7.5421,0.054141,0.073888,-0.91912,0.96295
8,-0.07896,7.5562,0.055372,0.074162,-0.82283,1.0266
8,-0.064531,7.5677,0.056074,0.073639,-0.72016,1.0885
8,-0.051727,7.5769,0.056477,0.071534,-0.61132,1.1581
8,-0.04145,7.5843,0.056902,0.06774,-0.49551,1.2444
8,-0.032961,7.5904,0.056978,0.062996,-0.37107,1.348
8,-0.025925,7.5956,0.055849,0.058564,-0.23627,1.4696
8,-0.020104,7.5998,0.052803,0.05522,-0.089309,1.6011
8,-0.015276,7.6033,0.046434,0.053415,0.070802,1.7191
8,-0.011282,7.6062,0.035406,0.054395,0.24271,1.8038
8,-0.0079907,7.6085,0.019406,0.059511,0.42309,1.8409
8,-0.0052679,7.6106,-0.00039866,0.069224,0.60718,1.8358
8,-0.0030287,7.6125,-0.022264,0.083335,0.79076,1.8058
8,-0.001163,7.614,-0.044775,0.10109,0.97135,1.7638
8,0.00063045,7.6143,-0.067248,0.12135,1.1477,1.7176
8,0.0015482,7.6126,-0.089787,0.1432,1.3195,1.6651
8,-0.00021969,7.6107,-0.11211,0.16629,1.486,1.5979
8,-0.005894,7.6119,-0.13381,0.19076,1.6458,1.5093
8,-0.01634,7.6194,-0.15459,0.21671,1.7967,1.3963
8,-0.032458,7.6356,-0.17441,0.24391,1.9364,1.2669
8,-0.053978,7.6611,-0.19344,0.27193,2.063,1.1411
8,-0.079757,7.6946,-0.21187,0.30047,2.1772,1.0211
8,-0.10906,7.7344,-0.22977,0.32962,2.2793,0.89343
8,-0.14128,7.779,-0.24716,0.36072,2.3686,0.74384
8,-0.17594,7.827,-0.26423,0.39612,2.443,0.55994
8,-0.21254,7.8768,-0.28013,0.43755,2.499,0.343
8,-0.25015,7.9281,-0.29298,0.48389,2.5333,0.094852
8,-0.28772,7.9813,-0.30164,0.53127,2.5428,-0.17044
8,-0.32445,8.0367,-0.3053,0.57576,2.5257,-0.42449
8,-0.36011,8.094,-0.30309,0.61418,2.4833,-0.64392
8,-0.39487,8.1524,-0.29535,0.64552,2.4189,-0.8085
8,-0.429,8.2115,-0.28323,0.67095,2.338,-0.91843
8,-0.46258,8.2717,-0.26729,0.6915,2.2462,-0.98484
8,-0.49547,8.3355,-0.24792,0.70732,2.1477,-1.0148
8,-0.52782,8.4065,-0.22543,0.71851,2.0462,-1.0146
8,-0.5587,8.4877,-0.20041,0.72514,1.9448,-0.98905
8,-0.58618,8.5785,-0.17398,0.72716,1.8459,-0.94274
8,-0.60917,8.6745,-0.14732,0.72449,1.7516,-0.88398
8,-0.62693,8.7709,-0.12124,0.71731,1.6632,-0.81953
8,-0.63864,8.864,-0.096025,0.7065,1.5812,-0.75891
8,-0.64468,8.9522,-0.071528,0.69307,1.5054,-0.71389
8,-0.64622,9.0365,-0.047545,0.67765,1.434,-0.68296
8,-0.64364,9.1173,-0.024005,0.66005,1.3657,-0.65739
8,-0.63712,9.1937,-0.00095204,0.63847,1.2999,-0.63056
8,-0.6268,9.264,0.021825,0.6104,1.2369,-0.5963
8,-0.61335,9.3271,0.04399,0.57389,1.1772,-0.5549
8,-0.59812,9.3825,0.064558,0.52895,1.1218,-0.50704
8,-0.58236,9.4303,0.082962,0.47775,1.071,-0.4575
8,-0.56693,9.4713,0.098839,0.42309,1.0253,-0.41688
8,-0.55216,9.507,0.11185,0.36754,0.98361,-0.39339
8,-0.53793,9.5385,0.12226,0.31255,0.94427,-0.39645
8,-0.52409,9.5668,0.13058,0.2583,0.90462,-0.42916
8,-0.51059,9.5918,0.13678,0.20491,0.86171,-0.49112
8,-0.49738,9.6124,0.14078,0.15307,0.8126,-0.58386
8,-0.48417,9.6273,0.14271,0.10376,0.75421,-0.70558
8,-0.47072,9.6355,0.14312,0.057782,0.68365,-0.85094
8,-0.45707,9.6364,0.14292,0.015528,0.59856,-1.0086
8,-0.44324,9.63,0.14269,-0.02304,0.4977,-1.1627
8,-0.42925,9.6171,0.1428,-0.058348,0.38143,-1.3023
8,-0.41494,9.599,0.14339,-0.090974,0.2512,-1.4184
8,-0.40016,9.5773,0.14437,-0.12127,0.10935,-1.5065
8,-0.38506,9.5531,0.14565,-0.15001,-0.041297,-1.5716
8,-0.37009,9.5272,0.14704,-0.17907,-0.19846,-1.6205
9,-0.01599,6.9552,0.0096678,-0.03492,-0.159718,0.027302
9,-0.014653,6.9398,0.0091235,-0.046856,-0.156988,0.0238165
9,-0.013476,6.9307,0.0074434,-0.049463,-0.154606,0.0108803
9,-0.012412,6.9249,0.0050952,-0.045933,-0.153518,-0.00751335
9,-0.011392,6.9201,0.0023896,-0.038511,-0.154269,-0.0307924
9,-0.010372,6.9167,-0.00050794,-0.028595,-0.157348,-0.051789
9,-0.0093402,6.9153,-0.0034801,-0.017531,-0.162527,-0.0598736
9,-0.0084303,6.9153,-0.0064271,-0.0056061,-0.168515,-0.0550369
9,-0.0073294,6.9156,-0.0093077,0.0070115,-0.174018,-0.040876
9,-0.0063231,6.917,-0.012145,0.019294,-0.178106,-0.0211883
9,-0.0063222,6.9202,-0.014705,0.030206,-0.180225,0.01372
9,-0.0059541,6.9036,-0.01881,0.048756,-0.178853,0.0360966
9,-0.0070579,6.8958,-0.023453,0.062843,-0.175243,0.0593221
9,-0.0093662,6.8955,-0.028286,0.074644,-0.169311,0.0853613
9,-0.012645,6.9012,-0.033117,0.086092,-0.160775,0.115177
9,-0.016752,6.9123,-0.037947,0.096671,-0.149257,0.14843
9,-0.021558,6.9271,-0.042785,0.10573,-0.134414,0.184483
9,-0.026916,6.9456,-0.047514,0.1138,-0.115966,0.222078
9,-0.032744,6.9678,-0.052436,0.12165,-0.0937581,0.260672
9,-0.039065,6.9918,-0.0573,0.1285,-0.0676909,0.302662
9,-0.045401,7.0156,-0.061183,0.13336,-0.0374247,0.359509
9,-0.052274,7.0373,-0.064633,0.14766,-0.00147378,0.423195
9,-0.060381,7.0563,-0.066782,0.1561,0.0408457,0.488747
9,-0.068984,7.0742,-0.067849,0.15818,0.0897204,0.552191
9,-0.077627,7.0922,-0.067976,0.15599,0.14494,0.617647
9,-0.086265,7.11,-0.067238,0.15084,0.206704,0.677398
9,-0.094911,7.1268,-0.065778,0.14378,0.274444,0.713753
9,-0.10346,7.1429,-0.063682,0.13479,0.345819,0.724703
9,-0.1122,7.1589,-0.061244,0.12383,0.41829,0.711353
9,-0.12092,7.174,-0.05828,0.11196,0.489425,0.678606
9,-0.12869,7.187,-0.054584,0.10061,0.557285,0.631573
9,-0.13522,7.1989,-0.049394,0.091294,0.620443,0.579908
9,-0.14062,7.208,-0.042099,0.084297,0.678434,0.531353
9,-0.14507,7.2118,-0.033597,0.078568,0.731569,0.479298
9,-0.1486,7.2132,-0.024484,0.073131,0.779499,0.423833
9,-0.15123,7.2139,-0.014924,0.068212,0.821882,0.363478
9,-0.15311,7.2147,-0.0050019,0.063564,0.85823,0.297973
9,-0.15428,7.2152,0.0052202,0.060363,0.888027,0.235268
9,-0.15523,7.2154,0.01571,0.058459,0.911554,0.175209
9,-0.15563,7.2157,0.026402,0.055489,0.929075,0.119646
9,-0.15457,7.2168,0.037201,0.050702,0.941039,0.0543042
9,-0.15106,7.2199,0.04807,0.042267,0.94647,-0.0167938
9,-0.14458,7.2249,0.058997,0.032524,0.94479,-0.0661634
9,-0.13618,7.2313,0.069951,0.024432,0.938174,-0.089346
9,-0.12659,7.2385,0.080796,0.015783,0.929239,-0.0913074
9,-0.11611,7.2464,0.091414,0.0052387,0.920109,-0.0744311
9,-0.10491,7.2539,0.10185,-0.0065115,0.912666,-0.0299087
9,-0.093019,7.2636,0.11202,-0.021556,0.909675,0.0474381
9,-0.080782,7.2758,0.12226,-0.040011,0.914419,0.159728
9,-0.068118,7.285,0.13244,-0.058055,0.930391,0.30271
9,-0.054286,7.2884,0.14181,-0.074601,0.960662,0.465785
9,-0.039079,7.2835,0.1497,-0.089717,1.00724,0.638877
9,-0.022628,7.273,0.15584,-0.10355,1.07113,0.816655
9,-0.0051631,7.2607,0.16082,-0.11609,1.15279,1.00405
9,0.012997,7.2448,0.16504,-0.12744,1.2532,1.19576
9,0.031601,7.2244,0.16868,-0.1378,1.37277,1.39698
9,0.050584,7.2017,0.17184,-0.14673,1.51247,1.60467
9,0.06975,7.1721,0.1754,-0.15654,1.67294,1.80334
9,0.089277,7.1354,0.18026,-0.16706,1.85327,1.99555
9,0.10925,7.0996,0.18138,-0.1745,2.05283,2.13819
9,0.12906,7.0676,0.17611,-0.17767,2.26665,2.21927
9,0.14833,7.0404,0.1676,-0.17527,2.48857,2.26528
9,0.16709,7.0178,0.15703,-0.16881,2.7151,2.27366
9,0.18546,6.9991,0.14509,-0.16028,2.94247,2.2491
9,0.20349,6.9836,0.13213,-0.14913,3.16738,2.18344
9,0.22124,6.9708,0.11839,-0.13486,3.38572,2.07848
9,0.23877,6.9605,0.10399,-0.11934,3.59357,1.99261
9,0.25778,6.9505,0.089085,-0.10051,3.79283,1.94045
9,0.27973,6.9417,0.073223,-0.076209,3.98688,1.87763
9,0.29465,6.936,0.057081,-0.051226,4.17464,1.79975
9,0.29793,6.933,0.042207,-0.027683,4.35461,1.71779
9,0.29611,6.9329,0.029099,-0.0045139,4.52639,1.63722
9,0.29143,6.9354,0.017722,0.018996,4.69011,1.55921
9,0.28501,6.9401,0.0077709,0.042815,4.84604,1.4811
9,0.27725,6.9465,-0.0010671,0.067364,4.99415,1.40475
9,0.26838,6.9547,-0.0086417,0.092055,5.13462,1.32687
9,0.25857,6.963,-0.015691,0.11956,5.26731,1.24714
9,0.24792,6.9711,-0.022819,0.14914,5.39202,1.17942
9,0.23572,6.983,-0.032856,0.16437,5.50996,1.10822
9,0.22341,6.9972,-0.022482,0.17283,5.62079,1.21726
9,0.21348,7.0122,0.041966,0.1929,5.74251,1.76201
9,0.20653,7.0314,0.13735,0.21911,5.91871,2.54977
9,0.20254,7.0558,0.23016,0.24579,6.17369,3.31371
9,0.201,7.0848,0.31711,0.28838,6.50506,4.01491
9,0.20136,7.1183,0.42041,0.34844,6.90655,4.8326
9,0.20396,7.155,0.52983,0.39184,7.38981,5.73063
9,0.20738,7.1996,0.54843,0.40057,7.96288,5.93417
9,0.21214,7.2488,0.47517,0.38305,8.55629,5.38675
9,0.21402,7.2704,0.39409,0.35225,9.09497,4.73613
9,0.24968,7.2816,0.3254,0.31486,9.56858,4.14429
9,0.38186,7.3188,0.26645,0.27137,9.98301,3.60348
9,0.57082,7.3712,0.20961,0.22102,10.3434,3.05677
9,0.75174,7.427,0.15331,0.16396,10.649,2.50025
9,0.91924,7.5169,0.10159,0.1018,10.8991,1.97227
9,1.1181,7.6434,0.05478,0.034739,11.0963,1.4711
9,1.328,7.7384,0.011716,-0.03563,11.2434,0.985291
9,1.3554,7.7641,-0.027168,-0.11381,11.3419,0.519448
9,1.1982,7.7372,-0.064132,-0.19685,11.3939,0.0564579
9,1.0239,7.6875,-0.096265,-0.25325,11.3995,-0.381963
9,0.8742,7.6269,-0.15588,-0.29859,11.3613,-1.05451
9,0.74638,7.555,-0.30433,-0.36774,11.2559,-2.4653
9,0.62575,7.4734,-0.50566,-0.44937,11.0093,-4.327
9,0.50916,7.3838,-0.69646,-0.53215,10.5766,-6.11362
9,0.40419,7.2884,-0.87208,-0.64692,9.96528,-7.7918
9,0.31092,7.1878,-1.0776,-0.79664,9.1861,-9.75542
9,0.22739,7.0837,-1.2932,-0.91347,8.21056,-11.8346
9,0.15305,6.972,-1.3252,-0.96014,7.0271,-12.3268
9,0.083876,6.8551,-1.1718,-0.95084,5.79441,-11.1606
9,0.021492,6.7639,-0.99998,-0.91706,4.67835,-9.7783
9,-0.062086,6.6844,-0.85265,-0.8742,3.70052,-8.57352
9,-0.2268,6.5834,-0.7287,-0.82299,2.84317,-7.55477
9,-0.4405,6.4724,-0.61384,-0.7675,2.08769,-6.60141
9,-0.64117,6.3627,-0.50488,-0.70948,1.42755,-5.69944
9,-0.82492,6.223,-0.40908,-0.65054,0.85761,-4.92316
9,-1.0372,6.0501,-0.3262,-0.59089,0.365294,-4.25718
9,-1.2583,5.9114,-0.25441,-0.53106,-0.060424,-3.67605
9,-1.2949,5.8438,-0.19239,-0.46878,-0.428029,-3.16867
9,-1.1453,5.8355,-0.13725,-0.40502,-0.744896,-2.71391
9,-0.97606,5.8534,-0.089057,-0.35502,-1.01629,-2.31275
9,-0.8311,5.8785,-0.033202,-0.31163,-1.24756,-1.84307
9,-0.71101,5.909,0.06079,-0.25807,-1.43187,-1.03414
9,-0.60193,5.9385,0.17728,-0.20011,-1.53528,-0.0066197
9,-0.50059,5.9648,0.28559,-0.1432,-1.53594,0.974293
9,-0.41397,5.9873,0.38405,-0.071656,-1.43852,1.91057
9,-0.34149,6.006,0.49564,0.016204,-1.24746,3.01926
9,-0.28142,6.0216,0.61069,0.086704,-0.945532,4.18579
9,-0.23173,6.0344,0.63272,0.12148,-0.526953,4.45501
9,-0.19063,6.0451,0.56099,0.12645,-0.0814521,3.78845
9,-0.15662,6.0539,0.47894,0.11817,0.297393,3.00512
9,-0.12849,6.0612,0.40856,0.10616,0.597905,2.33925
9,-0.10522,6.0672,0.34987,0.091271,0.83183,1.76812
10,0.059838,9.645,0.040449,-1.8012,-0.29965,0.26279
10,0.057331,9.5031,0.035315,-1.8578,-0.27337,0.64262
10,0.060222,9.2778,0.024305,-1.9504,-0.20911,0.5721
10,0.062205,9.043,0.013348,-2.0483,-0.1519,0.49581
10,0.063609,8.8033,0.0020028,-2.166,-0.10232,0.41167
10,0.064823,8.557,-0.010664,-2.2924,-0.061155,0.31243
10,0.065143,8.3006,-0.022342,-2.4018,-0.029912,0.21245
10,0.063815,8.0343,-0.030373,-2.4907,-0.0086667,0.13334
10,0.060979,7.7596,-0.034968,-2.5614,0.0046677,0.079341
10,0.05679,7.4776,-0.036714,-2.6177,0.012602,0.050243
10,0.051495,7.1894,-0.036271,-2.6635,0.017626,0.042699
10,0.045273,6.896,-0.034144,-2.7025,0.021896,0.054478
10,0.038295,6.5991,-0.033978,-2.6939,0.027344,0.049781
10,0.030693,6.2985,-0.032749,-2.6766,0.032322,0.060665
10,0.022141,5.9831,-0.030758,-2.6596,0.038388,0.085873
10,0.011854,5.6605,-0.02811,-2.6386,0.046976,0.12799
10,0.0017119,5.353,-0.024716,-2.6014,0.059775,0.18653
10,-0.0057965,5.0658,-0.020802,-2.5463,0.078428,0.25226
10,-0.010508,4.799,-0.016623,-2.4745,0.10365,0.3204
10,-0.012667,4.5506,-0.012225,-2.388,0.13569,0.3918
10,-0.012704,4.318,-0.0076589,-2.2889,0.17487,0.46681
10,-0.010957,4.098,-0.0029402,-2.1795,0.22156,0.54556
10,-0.0077351,3.89,0.0018913,-2.0618,0.27611,0.62774
10,-0.0032928,3.6898,0.0068162,-1.9373,0.33889,0.71382
10,0.0020932,3.484,0.012029,-1.8006,0.41027,0.8049
10,0.0086021,3.2799,0.01798,-1.6562,0.49076,0.90638
10,0.015711,3.0978,0.023719,-1.5168,0.5814,1.015
10,0.022211,2.9417,0.027888,-1.3859,0.6829,1.115
10,0.027732,2.8105,0.030382,-1.2635,0.7944,1.1933
10,0.03234,2.7016,0.031353,-1.1487,0.91373,1.2444
10,0.036178,2.6115,0.031071,-1.0405,1.0382,1.2712
10,0.039392,2.537,0.029732,-0.9372,1.1653,1.2752
10,0.042078,2.4754,0.027538,-0.83895,1.2928,1.2582
10,0.044326,2.424,0.024262,-0.74449,1.4186,1.2111
10,0.046199,2.3818,0.020657,-0.64607,1.5397,1.1499
10,0.047814,2.3481,0.017951,-0.54624,1.6547,1.1053
10,0.04915,2.3194,0.016575,-0.45489,1.7653,1.0845
10,0.049979,2.2941,0.016877,-0.37424,1.8737,1.0933
10,0.050257,2.2721,0.018812,-0.30412,1.983,1.1305
10,0.050039,2.2532,0.022157,-0.24351,2.0961,1.1891
10,0.049438,2.237,0.026674,-0.19092,2.215,1.2634
10,0.048506,2.2236,0.032149,-0.14502,2.3414,1.3493
10,0.047341,2.2121,0.038593,-0.1048,2.4763,1.4482
10,0.045231,2.2009,0.045918,-0.068617,2.6211,1.558
10,0.043407,2.1919,0.053268,-0.036601,2.7769,1.6592
10,0.044504,2.1874,0.059631,-0.0086076,2.9428,1.7286
10,0.04886,2.188,0.064816,0.017913,3.1157,1.7549
10,0.055965,2.1932,0.069184,0.043854,3.2912,1.7423
10,0.065357,2.2023,0.072995,0.068802,3.4654,1.7295
10,0.076653,2.2146,0.076379,0.092633,3.6384,1.7361
10,0.089526,2.2297,0.079395,0.11703,3.812,1.7401
10,0.10369,2.2469,0.082114,0.13683,3.986,1.7444
10,0.11926,2.2658,0.084113,0.14599,4.1604,1.7505
10,0.13616,2.2867,0.086004,0.15428,4.3355,1.7589
10,0.15273,2.3086,0.088009,0.17473,4.5114,1.745
10,0.16708,2.3309,0.088562,0.20932,4.6859,1.6617
10,0.17878,2.3552,0.08723,0.25573,4.852,1.5091
10,0.18835,2.3818,0.08439,0.31219,5.0029,1.3036
10,0.19625,2.4097,0.080205,0.37615,5.1333,1.0593
10,0.2028,2.4385,0.074827,0.44586,5.2392,0.79386
10,0.20823,2.4711,0.068457,0.52013,5.3186,0.51921
10,0.21273,2.4973,0.061272,0.59872,5.3705,0.24131
10,0.21557,2.5041,0.052933,0.67959,5.3947,-0.033625
10,0.21724,2.5094,0.042849,0.7617,5.3913,-0.31725
10,0.21942,2.5413,0.03402,0.84781,5.3596,-0.61175
10,0.22163,2.606,0.030381,0.93918,5.2984,-0.86264
10,0.22332,2.6995,0.032353,1.0351,5.2121,-1.0097
10,0.22474,2.8176,0.03911,1.1349,5.1112,-1.0591
10,0.22577,2.9546,0.049801,1.2383,5.0053,-1.1356
10,0.22631,3.1064,0.063732,1.3453,4.8917,-1.3096
10,0.22644,3.2699,0.080344,1.4507,4.7607,-1.4946
10,0.22623,3.4444,0.099187,1.5615,4.6113,-1.6411
10,0.22513,3.625,0.12155,1.6916,4.4472,-1.7347
10,0.22186,3.8101,0.14799,1.825,4.2737,-1.757
10,0.22077,4.0042,0.17376,1.9337,4.098,-1.7298
10,0.22784,4.2093,0.1954,2.0096,3.925,-1.6706
10,0.24349,4.4255,0.2131,2.0597,3.7579,-1.6014
10,0.26657,4.6516,0.22679,2.0896,3.5978,-1.541
10,0.29585,4.8863,0.23696,2.1015,3.4437,-1.4251
10,0.33026,5.1291,0.24424,2.0984,3.3012,-1.256
10,0.36892,5.3725,0.24915,2.083,3.1756,-1.1163
10,0.41111,5.6203,0.2521,2.0558,3.064,-0.96187
10,0.45867,5.8872,0.25359,2.0223,2.9678,-0.73941
10,0.51322,6.1595,0.25458,1.9846,2.8938,-0.4823
10,0.56695,6.4087,0.25335,1.9369,2.8456,-0.18419
10,0.61243,6.6252,0.24698,1.8758,2.8272,0.11652
10,0.64952,6.8189,0.23538,1.8006,2.8388,0.31857
10,0.67833,6.9967,0.21946,1.7129,2.8707,0.42925
10,0.69968,7.1577,0.19995,1.6146,2.9136,0.59041
10,0.71479,7.3032,0.17747,1.5061,2.9727,0.88364
10,0.72473,7.4359,0.15254,1.3937,3.061,1.1895
10,0.73043,7.556,0.12554,1.2795,3.18,1.4157
10,0.73232,7.6696,0.09514,1.1535,3.3215,1.5572
10,0.73102,7.7794,0.060299,1.0209,3.4773,1.6111
10,0.72748,7.878,0.025666,0.89924,3.6384,1.6192
10,0.72179,7.9608,-0.0044525,0.79545,3.8003,1.6184
10,0.71425,8.0267,-0.029862,0.70186,3.9621,1.639
10,0.70549,8.0775,-0.050363,0.61345,4.126,1.6968
10,0.69576,8.1155,-0.066112,0.53375,4.2957,1.6778
10,0.68521,8.1413,-0.077792,0.46325,4.4635,1.5628
10,0.67399,8.16,-0.086112,0.40045,4.6198,1.4784
10,0.6622,8.1793,-0.091678,0.34609,4.7676,1.4135
10,0.64895,8.1942,-0.094381,0.29987,4.909,1.262
10,0.63382,8.2013,-0.093577,0.25604,5.0352,1.0475
10,0.61828,8.2072,-0.092879,0.21288,5.1399,0.79869
10,0.60353,8.2161,-0.095526,0.17359,5.2198,0.54749
10,0.5898,8.2226,-0.10059,0.14041,5.2745,0.35733
10,0.57761,8.2236,-0.10752,0.11378,5.3103,0.19289
10,0.56746,8.2252,-0.11592,0.093007,5.3295,0.0070682
10,0.5592,8.2297,-0.12563,0.077916,5.3303,-0.23269
10,0.55251,8.2368,-0.13673,0.066432,5.307,-0.51375
10,0.54708,8.2482,-0.14781,0.053773,5.2556,-0.79338
10,0.54356,8.2693,-0.1579,0.043767,5.1763,-1.0513
10,0.54387,8.2915,-0.16842,0.037879,5.0711,-1.2947
10,0.54172,8.3038,-0.17886,0.028678,4.9417,-1.5175
10,0.53074,8.308,-0.18783,0.012148,4.7899,-1.7102
10,0.51307,8.3075,-0.19531,-0.0088571,4.6189,-1.8855
10,0.49045,8.3051,-0.20166,-0.031933,4.4304,-2.0525
10,0.46392,8.3015,-0.20746,-0.059171,4.2251,-2.1718
10,0.43395,8.2971,-0.21292,-0.091654,4.0079,-2.2243
10,0.40052,8.2929,-0.21807,-0.12771,3.7855,-2.258
10,0.36659,8.2869,-0.22121,-0.15183,3.5597,-2.2919
10,0.33316,8.2817,-0.22518,-0.18893,3.3305,-2.3741
10,0.29699,8.2771,-0.23163,-0.23151,3.0931,-2.4365
10,0.26056,8.2646,-0.23584,-0.26619,2.8494,-2.4651
10,0.22786,8.2404,-0.23303,-0.29255,2.6029,-2.5148
10,0.19918,8.2049,-0.22539,-0.31324,2.3514,-2.6255
10,0.17428,8.1597,-0.21456,-0.33107,2.0889,-2.7315
10,0.15253,8.1068,-0.20128,-0.34732,1.8157,-2.8373
10,0.13337,8.0464,-0.18553,-0.3628,1.532,-2.9461
10,0.11636,7.9814,-0.16882,-0.36067,1.2374,-2.8229
10,0.10467,7.9445,-0.15984,-0.3765,0.95511,-1.5339
10,0.093206,7.8915,-0.15015,-0.39455,0.80173,-1.4955
10,0.080615,7.8285,-0.13771,-0.41505,0.65218,-1.431
10,0.070031,7.7714,-0.12355,-0.43317,0.50907,-1.3554
10,0.064687,7.7229,-0.10999,-0.44594,0.37353,-1.2871
10,0.062295,7.681,-0.097355,-0.45244,0.24482,-1.2284
10,0.061324,7.6429,-0.085689,-0.45248,0.12199,-1.1804
10,0.061358,7.6069,-0.074709,-0.44608,0.0039496,-1.1419
10,0.062881,7.5715,-0.064083,-0.43174,-0.11024,-1.1288
11,0.0272377,11.1617,-0.13184,-0.57604,0.27938,-0.65047
11,0.00909468,11.0884,-0.12604,-0.55169,0.21433,-0.63202
11,-0.00808621,11.0207,-0.11887,-0.52274,0.15113,-0.60537
11,-0.0233788,10.9611,-0.11067,-0.48862,0.090595,-0.57187
11,-0.0363984,10.9112,-0.10202,-0.44984,0.033409,-0.53678
11,-0.0474982,10.8704,-0.093222,-0.40764,-0.020269,-0.5013
11,-0.0571809,10.8373,-0.084326,-0.36333,-0.070399,-0.46276
11,-0.0657571,10.8102,-0.075288,-0.31758,-0.11667,-0.41596
11,-0.0734443,10.7865,-0.065996,-0.27075,-0.15827,-0.36032
11,-0.0797378,10.7644,-0.05609,-0.22318,-0.1943,-0.2982
11,-0.083865,10.7436,-0.045408,-0.17535,-0.22412,-0.23045
11,-0.0856867,10.7261,-0.034399,-0.12844,-0.24717,-0.15906
11,-0.0852458,10.7151,-0.023687,-0.083698,-0.26307,-0.085091
11,-0.0831701,10.7123,-0.013758,-0.04243,-0.27158,-0.012368
11,-0.0805446,10.7169,-0.0048335,-0.0055988,-0.27282,0.056847
11,-0.0778989,10.7269,0.0032799,0.026944,-0.26713,0.12438
11,-0.0752626,10.7401,0.010847,0.055754,-0.2547,0.18747
11,-0.0726079,10.7557,0.017983,0.081858,-0.23595,0.23717
11,-0.0699379,10.773,0.024794,0.10711,-0.21223,0.27072
11,-0.0670052,10.7915,0.030686,0.13295,-0.18516,0.28809
11,-0.0635787,10.8109,0.034783,0.15923,-0.15635,0.29041
11,-0.0597043,10.8315,0.036889,0.18366,-0.12731,0.28352
11,-0.0554593,10.8533,0.037006,0.20278,-0.098957,0.2689
11,-0.0508946,10.8763,0.035708,0.21477,-0.072068,0.24758
11,-0.0460654,10.9,0.034042,0.22014,-0.04731,0.22588
11,-0.0409384,10.9243,0.032498,0.22085,-0.024722,0.20606
11,-0.0354861,10.9488,0.031084,0.21893,-0.0041164,0.18642
11,-0.029791,10.9739,0.029755,0.2151,0.014526,0.16407
11,-0.0238556,11.0007,0.028499,0.20972,0.030933,0.1389
11,-0.0183662,11.0303,0.027163,0.20316,0.044823,0.11229
11,-0.0142988,11.062,0.02563,0.19559,0.056053,0.084616
11,-0.011908,11.0934,0.024052,0.18708,0.064514,0.056489
11,-0.0112331,11.1207,0.022655,0.17781,0.070163,0.027835
11,-0.0117541,11.1418,0.021559,0.16817,0.072947,0.00060694
11,-0.0124615,11.1572,0.02079,0.15852,0.073007,-0.023946
11,-0.012902,11.1686,0.020206,0.14898,0.070613,-0.047363
11,-0.0130952,11.178,0.019677,0.13961,0.065876,-0.068394
11,-0.0130972,11.1859,0.01922,0.13021,0.059037,-0.081267
11,-0.0129408,11.1924,0.018796,0.12004,0.05091,-0.083977
11,-0.0126798,11.1978,0.018715,0.10859,0.042513,-0.077003
11,-0.0123192,11.2021,0.019464,0.096135,0.034812,-0.061232
11,-0.0115996,11.2057,0.021136,0.083926,0.028689,-0.040055
11,-0.0101489,11.2089,0.023724,0.073819,0.024684,-0.014459
11,-0.00777725,11.2126,0.026977,0.066827,0.023238,0.015475
11,-0.00448595,11.217,0.030373,0.062793,0.024785,0.047176
11,-0.000525923,11.2222,0.033655,0.060805,0.029503,0.078893
11,0.00386885,11.2281,0.036825,0.059864,0.037392,0.11056
11,0.00864961,11.2343,0.039915,0.059645,0.048448,0.14224
11,0.0137365,11.2408,0.042944,0.060109,0.062672,0.17169
11,0.0190635,11.2475,0.045944,0.061191,0.079841,0.19682
11,0.0246287,11.2543,0.048913,0.062882,0.099523,0.21794
11,0.0303645,11.2613,0.05158,0.064998,0.12132,0.2344
11,0.0362151,11.2683,0.053542,0.067091,0.14476,0.24507
11,0.0422003,11.2755,0.054586,0.068605,0.16926,0.25106
11,0.0482836,11.2828,0.054713,0.069193,0.19437,0.25376
11,0.0544086,11.2902,0.054121,0.068863,0.21975,0.25396
11,0.0605549,11.2977,0.052999,0.067821,0.24514,0.25244
11,0.066732,11.3052,0.051439,0.066241,0.27039,0.24768
11,0.0729477,11.3127,0.049523,0.064137,0.29515,0.23868
11,0.0792085,11.3202,0.047339,0.061516,0.31902,0.22646
11,0.0855067,11.3279,0.044914,0.0588,0.34167,0.21164
11,0.0915594,11.3357,0.042099,0.057219,0.36283,0.19369
11,0.0969352,11.3431,0.038604,0.058247,0.3822,0.17103
11,0.101396,11.3498,0.034141,0.063046,0.3993,0.14196
11,0.104941,11.3554,0.028691,0.072083,0.4135,0.10654
11,0.107716,11.36,0.022512,0.084956,0.42415,0.066688
11,0.109866,11.3637,0.015793,0.10098,0.43082,0.023661
11,0.111527,11.3668,0.0086233,0.11956,0.43319,-0.022233
11,0.112783,11.3691,0.0010662,0.14027,0.43097,-0.066037
11,0.113742,11.3705,-0.0068045,0.16272,0.42436,-0.10253
11,0.114457,11.3719,-0.014941,0.18652,0.41411,-0.13227
11,0.114562,11.3757,-0.023239,0.21137,0.40088,-0.15632
11,0.113424,11.3848,-0.031498,0.23717,0.38525,-0.17547
11,0.110482,11.4016,-0.039522,0.26403,0.3677,-0.19431
11,0.105666,11.427,-0.047193,0.29208,0.34827,-0.21612
11,0.0994316,11.4601,-0.054481,0.32128,0.32666,-0.23983
11,0.0921416,11.4996,-0.061444,0.35143,0.30268,-0.26504
11,0.0839785,11.5443,-0.068178,0.38235,0.27617,-0.29078
11,0.07508,11.5932,-0.07471,0.41419,0.2471,-0.316
11,0.0655995,11.6456,-0.08112,0.44696,0.2155,-0.34102
11,0.0556243,11.7009,-0.087444,0.4797,0.18139,-0.36599
11,0.0450819,11.7584,-0.093188,0.50988,0.14479,-0.38847
11,0.0339387,11.8175,-0.097585,0.53461,0.10595,-0.40457
11,0.0223511,11.8779,-0.10006,0.55168,0.065491,-0.41143
11,0.0105539,11.9396,-0.10058,0.56025,0.024348,-0.40899
11,-0.00124579,12.0025,-0.09957,0.56113,-0.016551,-0.39954
11,-0.0130211,12.0666,-0.097415,0.55573,-0.056506,-0.38501
11,-0.0248289,12.1315,-0.094317,0.5453,-0.095007,-0.36602
11,-0.0366372,12.1974,-0.090437,0.53071,-0.13161,-0.34531
11,-0.0484986,12.2644,-0.085905,0.51268,-0.16614,-0.3263
11,-0.0604303,12.3313,-0.080807,0.49183,-0.19877,-0.30933
12,0.12178,13.6991,-0.11484,-0.45607,0.27934,-0.48134
12,0.106681,13.5877,-0.12158,-0.51847,0.2312,-0.50724
12,0.0870699,13.4753,-0.12727,-0.57507,0.18048,-0.52915
12,0.0641597,13.3671,-0.13104,-0.61988,0.12756,-0.54345
12,0.040837,13.2676,-0.13288,-0.64616,0.073219,-0.54989
12,0.0195026,13.179,-0.13331,-0.64781,0.01823,-0.55055
12,0.000813567,13.1006,-0.13248,-0.62066,-0.036825,-0.54582
12,-0.0159767,13.0298,-0.13044,-0.5633,-0.091406,-0.53603
12,-0.0311962,12.9654,-0.12763,-0.47846,-0.14501,-0.52292
12,-0.0451689,12.9063,-0.12361,-0.37152,-0.1973,-0.50456
12,-0.0583601,12.8515,-0.11661,-0.24986,-0.24776,-0.4734
12,-0.0711419,12.8011,-0.10547,-0.1216,-0.2951,-0.42465
12,-0.0830057,12.7578,-0.0898,0.006517,-0.33756,-0.35641
12,-0.0929783,12.7265,-0.070814,0.12936,-0.3732,-0.2744
12,-0.100689,12.7134,-0.051396,0.24311,-0.40064,-0.19129
12,-0.106488,12.7248,-0.033957,0.34553,-0.41977,-0.11711
12,-0.110562,12.7649,-0.019155,0.43719,-0.43148,-0.054473
12,-0.11305,12.8362,-0.0062444,0.52054,-0.43693,-0.00013982
12,-0.114438,12.9365,0.005107,0.59799,-0.43694,0.047138
12,-0.114453,13.0603,0.015202,0.67124,-0.43223,0.088739
12,-0.111439,13.1994,0.024534,0.74111,-0.42336,0.12719
12,-0.10426,13.3445,0.033642,0.80699,-0.41064,0.16464
12,-0.0925295,13.4883,0.042105,0.86653,-0.39417,0.19868
12,-0.0774684,13.6258,0.048705,0.91668,-0.3743,0.2245
12,-0.0619552,13.7538,0.05277,0.95379,-0.35185,0.24249
12,-0.0484108,13.8701,0.054895,0.97508,-0.32761,0.25844
12,-0.0374955,13.975,0.056219,0.97896,-0.30176,0.27958
12,-0.0284656,14.0709,0.057591,0.96454,-0.2738,0.31076
12,-0.0209822,14.1613,0.059239,0.93328,-0.24273,0.35095
12,-0.0147651,14.2488,0.06076,0.88834,-0.20763,0.39609
12,-0.00929282,14.3337,0.061321,0.8346,-0.16802,0.44131
12,-0.00385758,14.415,0.060357,0.77778,-0.12389,0.48325
12,0.0012048,14.4909,0.057579,0.72231,-0.075568,0.52019
12,0.00443195,14.5599,0.053418,0.67051,-0.023549,0.5535
12,0.00485099,14.621,0.04918,0.62352,0.031801,0.58783
12,0.00330235,14.6749,0.046029,0.58243,0.090584,0.62836
12,0.00187642,14.7228,0.044284,0.5475,0.15342,0.67731
12,0.00213143,14.7653,0.043571,0.51738,0.22115,0.73066
12,0.00404028,14.8031,0.043692,0.4895,0.29422,0.78394
12,0.00706722,14.837,0.04449,0.46175,0.37261,0.8342
12,0.0112034,14.8686,0.045598,0.43397,0.45603,0.87736
12,0.0164546,14.9001,0.046527,0.40792,0.54377,0.91064
12,0.0226283,14.9329,0.04775,0.38596,0.63483,0.9388
12,0.0293678,14.9668,0.050736,0.36942,0.72871,0.9704
12,0.036404,15.0009,0.056417,0.35814,0.82575,1.004
12,0.0436465,15.035,0.06402,0.35023,0.92615,1.0291
12,0.0510725,15.07,0.071527,0.34345,1.0291,1.0329
12,0.0586769,15.1057,0.077329,0.33673,1.1324,1.0087
12,0.0664024,15.1403,0.081359,0.32953,1.2332,0.96074
12,0.074215,15.1723,0.084324,0.32155,1.3293,0.8955
12,0.0819022,15.2017,0.086751,0.31276,1.4188,0.81638
12,0.0891961,15.2309,0.088285,0.30396,1.5005,0.72565
12,0.0967043,15.2628,0.088501,0.29669,1.573,0.62496
12,0.105903,15.2987,0.087521,0.29282,1.6355,0.51512
12,0.117686,15.3373,0.08496,0.29435,1.6871,0.39563
12,0.131342,15.3754,0.080703,0.30217,1.7266,0.26674
12,0.14493,15.4097,0.075095,0.31527,1.7533,0.1285
12,0.156789,15.4388,0.068343,0.33246,1.7661,-0.01408
12,0.166758,15.4621,0.060664,0.35378,1.7647,-0.15178
12,0.175716,15.4801,0.052226,0.37958,1.7496,-0.27962
12,0.184705,15.4941,0.043205,0.40934,1.7216,-0.39463
12,0.193024,15.508,0.033709,0.44142,1.6821,-0.49591
12,0.19963,15.5263,0.023451,0.47389,1.6325,-0.58772
12,0.20441,15.5525,0.011793,0.5057,1.5738,-0.6777
12,0.206325,15.5896,-0.0016096,0.53721,1.506,-0.76409
12,0.205052,15.6393,-0.016316,0.56989,1.4296,-0.84094
12,0.201262,15.7005,-0.031267,0.60525,1.3455,-0.90602
12,0.195362,15.7706,-0.045596,0.64391,1.2549,-0.9566
12,0.187731,15.8479,-0.059194,0.68615,1.1592,-0.99379
12,0.178667,15.9314,-0.0727,0.73209,1.0599,-1.021
12,0.168312,16.0203,-0.087138,0.7806,0.95775,-1.041
12,0.156614,16.1137,-0.10175,0.82812,0.85366,-1.0552
12,0.143606,16.2106,-0.11533,0.8703,0.74813,-1.0636
12,0.129489,16.3101,-0.12755,0.90386,0.64177,-1.0634
12,0.114467,16.4117,-0.13722,0.92584,0.53544,-1.0494
12,0.0987093,16.5152,-0.14394,0.93467,0.4305,-1.0217
12,0.0823965,16.6202,-0.14831,0.93172,0.32833,-0.98261
12,0.0655978,16.7266,-0.15078,0.91949,0.23007,-0.93598
12,0.0483707,16.8344,-0.15178,0.89937,0.13647,-0.89023
12,0.0303154,16.9443,-0.15145,0.87179,0.047452,-0.84895
12,0.0104299,17.0553,-0.14961,0.83708,-0.037443,-0.80949
12,-0.0104695,17.1642,-0.14591,0.79585,-0.11839,-0.76909
12,-0.0310232,17.2669,-0.14029,0.74916,-0.1953,-0.72801
12,-0.0506985,17.3602,-0.1331,0.69814,-0.2681,-0.68671
12,-0.0681204,17.4412,-0.12472,0.64363,-0.33677,-0.64918
12,-0.0828226,17.5086,-0.11538,0.58617,-0.40169,-0.61418
12,-0.0953671,17.5639,-0.10531,0.52609,-0.46311,-0.57323
12,-0.106205,17.6096,-0.094605,0.46378,-0.52043,-0.5255
12,-0.11583,17.6466,-0.083259,0.39943,-0.57298,-0.47321
12,-0.124239,17.675,-0.071056,0.33309,-0.6203,-0.41684
12,-0.130907,17.6945,-0.057539,0.2654,-0.66199,-0.35667
12,-0.135211,17.7054,-0.043178,0.19816,-0.69765,-0.29345
12,-0.136983,17.7089,-0.028718,0.13353,-0.727,-0.22885
12,-0.13671,17.7064,-0.014472,0.07317,-0.74988,-0.16537
12,-0.134972,17.699,-0.0011595,0.018565,-0.76642,-0.10635
12,-0.132059,17.6875,0.010946,-0.029563,-0.77706,-0.052215
12,-0.128228,17.6724,0.022079,-0.071997,-0.78228,-0.0021635
12,-0.123611,17.6541,0.032533,-0.10989,-0.7825,0.046082
12,-0.118147,17.6333,0.042668,-0.14328,-0.77789,0.10194
12,-0.111796,17.6105,0.052349,-0.17131,-0.76769,0.17132
12,-0.104647,17.5861,0.059578,-0.19037,-0.75056,0.21485
12,-0.096825,17.5606,0.065232,-0.20397,-0.72908,0.25571
12,-0.0884584,17.534,0.068968,-0.21264,-0.70351,0.29401
12,-0.0796416,17.5065,0.071143,-0.21732,-0.67411,0.33272
12,-0.0704393,17.4784,0.072254,-0.21882,-0.64083,0.37518
12,-0.0609312,17.4495,0.072513,-0.21763,-0.60332,0.41811
12,-0.0512095,17.4199,0.072078,-0.21401,-0.5615,0.45313
12,-0.0411401,17.3898,0.07106,-0.20827,-0.51619,0.47624
12,-0.0304935,17.3601,0.06946,-0.20078,-0.46857,0.48743
12,-0.0195405,17.3324,0.066285,-0.18936,-0.41982,0.47468
12,-0.0117507,17.3137,0.066011,-0.18652,-0.37235,0.24678
12,-0.00474705,17.2975,0.065332,-0.18268,-0.34768,0.25255
12,0.000952536,17.2836,0.064254,-0.17778,-0.32242,0.25764
12,0.00557631,17.2717,0.062759,-0.17174,-0.29666,0.26251
12,0.00953693,17.2613,0.060808,-0.16441,-0.27041,0.26741
12,0.0129667,17.2522,0.05836,-0.15556,-0.24366,0.27258
12,0.0159269,17.2444,0.055371,-0.14477,-0.21641,0.27898
12,0.0185086,17.2376,0.051594,-0.13173,-0.18851,0.28485
12,0.020773,17.2317,0.046606,-0.11667,-0.16002,0.27836
12,0.020773,17.2317,0.046606,-0.11667,-0.13219,0.27836
13,-0.0157191,13.8658,0.17134,-0.17315,-0.22764,0.67994
13,-0.00473832,13.8635,0.1517,-0.15823,-0.15964,0.59227
13,0.00446424,13.8624,0.13276,-0.15352,-0.10042,0.50821
13,0.0121694,13.8584,0.11557,-0.15759,-0.049595,0.43185
13,0.0186226,13.8477,0.099955,-0.16816,-0.0064107,0.36266
13,0.0253958,13.8303,0.085303,-0.18399,0.029855,0.29828
13,0.0337236,13.811,0.071542,-0.20562,0.059683,0.23827
13,0.043456,13.7959,0.058869,-0.23343,0.083511,0.18395
13,0.0528366,13.7868,0.047483,-0.26658,0.10191,0.1363
13,0.0596098,13.7791,0.037235,-0.30345,0.11554,0.094496
13,0.0639495,13.7668,0.028099,-0.34242,0.12499,0.058417
13,0.0666841,13.7451,0.02004,-0.38308,0.13083,0.02752
13,0.0683936,13.7111,0.012867,-0.42476,0.13358,0.0006656
13,0.0690707,13.6667,0.0064526,-0.46417,0.13365,-0.02276
13,0.0679593,13.6149,0.0006853,-0.49732,0.13137,-0.0433
13,0.0650656,13.5572,-0.0059021,-0.52385,0.12704,-0.067286
13,0.0608817,13.493,-0.014471,-0.54862,0.12031,-0.099605
13,0.0559595,13.4218,-0.024837,-0.57745,0.11035,-0.13981
13,0.0508215,13.3446,-0.03521,-0.61212,0.096369,-0.18055
13,0.0456364,13.2635,-0.04327,-0.6484,0.078315,-0.21145
13,0.0404782,13.1809,-0.049399,-0.68111,0.05717,-0.23421
13,0.0353423,13.0974,-0.054838,-0.70673,0.033749,-0.25451
13,0.0301985,13.0129,-0.060166,-0.72391,0.008298,-0.27501
13,0.0250745,12.9301,-0.064509,-0.73565,-0.019203,-0.29184
13,0.0199932,12.8531,-0.065534,-0.74502,-0.048387,-0.29431
13,0.0135916,12.7826,-0.061677,-0.75241,-0.077818,-0.27456
13,0.00478143,12.7138,-0.052373,-0.75649,-0.10527,-0.22962
13,-0.00621858,12.641,-0.037239,-0.75637,-0.12824,-0.15729
13,-0.0175824,12.5625,-0.016875,-0.75257,-0.14397,-0.057471
13,-0.0269308,12.4823,0.0075197,-0.74647,-0.14971,0.067455
13,-0.0348487,12.4046,0.035177,-0.73955,-0.14297,0.21645
13,-0.0429915,12.3316,0.06554,-0.73223,-0.12132,0.38826
13,-0.051939,12.2633,0.097311,-0.72425,-0.082497,0.57524
13,-0.0599465,12.1954,0.12908,-0.71618,-0.024973,0.76898
13,-0.0631093,12.1249,0.1597,-0.70905,0.051925,0.96274
13,-0.0582894,12.0524,0.188,-0.70229,0.1482,1.1489
13,-0.0438646,11.98,0.21275,-0.6928,0.26309,1.3203
13,-0.0185194,11.9091,0.23275,-0.67727,0.39512,1.4707
13,0.0170708,11.8394,0.2459,-0.65501,0.54219,1.5874
13,0.0606758,11.7705,0.25052,-0.62839,0.70093,1.6589
13,0.110832,11.7018,0.24882,-0.59921,0.86682,1.6932
13,0.166421,11.6329,0.24444,-0.56752,1.0361,1.7059
13,0.224821,11.5644,0.23965,-0.53235,1.2067,1.7095
13,0.283228,11.4977,0.23442,-0.49057,1.3777,1.7053
13,0.339391,11.435,0.22667,-0.44053,1.5482,1.6847
13,0.389591,11.378,0.21382,-0.38408,1.7167,1.6361
13,0.430291,11.3282,0.19305,-0.32436,1.8803,1.5467
13,0.459288,11.2865,0.16176,-0.26385,2.0349,1.4043
13,0.474208,11.2525,0.11973,-0.20393,2.1754,1.203
13,0.4741,11.2255,0.069332,-0.14545,2.2957,0.94908
13,0.462784,11.2062,0.01281,-0.089011,2.3906,0.64878
13,0.44588,11.1966,-0.048026,-0.03519,2.4555,0.3086
13,0.427356,11.1986,-0.11026,0.015085,2.4863,-0.054455
13,0.408885,11.2143,-0.17144,0.060527,2.4809,-0.42543
13,0.390235,11.2438,-0.22949,0.099713,2.4383,-0.79225
13,0.369358,11.2842,-0.28085,0.13135,2.3591,-1.1353
13,0.342229,11.3313,-0.32211,0.15423,2.2456,-1.4369
13,0.304991,11.3814,-0.35115,0.16755,2.1019,-1.687
13,0.256536,11.4316,-0.36585,0.17146,1.9332,-1.8703
13,0.199339,11.4797,-0.36497,0.16704,1.7462,-1.9729
13,0.136452,11.5238,-0.35143,0.15549,1.5489,-1.9994
13,0.0703698,11.5625,-0.33121,0.1375,1.3489,-1.9715
13,0.00429078,11.5945,-0.30946,0.11296,1.1518,-1.9185
13,-0.0596537,11.6188,-0.28969,0.080475,0.95994,-1.8626
13,-0.119595,11.6344,-0.27403,0.038757,0.77368,-1.8182
13,-0.172117,11.6407,-0.26139,-0.011503,0.59186,-1.7827
13,-0.213923,11.6367,-0.24804,-0.06783,0.41359,-1.739
13,-0.243005,11.6216,-0.23078,-0.12693,0.23969,-1.6723
13,-0.257483,11.5954,-0.20802,-0.18578,0.072459,-1.5732
13,-0.255837,11.5596,-0.18109,-0.24204,-0.084865,-1.4464
13,-0.240077,11.5172,-0.15221,-0.29379,-0.22951,-1.3013
13,-0.216535,11.4716,-0.12332,-0.33953,-0.35964,-1.1468
13,-0.191571,11.4245,-0.096289,-0.37881,-0.47432,-0.99367
14,0.030444,6.8701,0.021654,0.131,-0.29835,0.58083
14,0.032096,6.8844,0.017085,0.14535,-0.24027,0.5208
14,0.033607,6.8999,0.012304,0.15745,-0.18819,0.45861
14,0.035015,6.9156,0.0082639,0.16557,-0.14233,0.4024
14,0.036337,6.9303,0.0050333,0.16898,-0.10209,0.35283
14,0.037471,6.9436,0.0023015,0.16758,-0.066802,0.30751
14,0.038356,6.9575,-3.74E-05,0.16254,-0.036051,0.26575
14,0.03922,6.9744,-0.002071,0.15578,-0.0094755,0.22665
14,0.039922,6.9955,-0.0038587,0.14911,0.013189,0.18969
14,0.039581,7.0198,-0.0054231,0.1435,0.032158,0.15484
14,0.037588,7.0442,-0.0068029,0.13893,0.047642,0.12166
14,0.034254,7.0658,-0.008043,0.13505,0.059807,0.089777
14,0.030601,7.0835,-0.0091809,0.13187,0.068785,0.058591
14,0.027553,7.0976,-0.010254,0.13005,0.074644,0.027903
14,0.02515,7.1091,-0.01126,0.13016,0.077435,-0.0036993
14,0.023149,7.1187,-0.012138,0.13193,0.077065,-0.03737
14,0.021467,7.1266,-0.012871,0.13424,0.073328,-0.069178
14,0.020036,7.1331,-0.013583,0.1357,0.06641,-0.093379
14,0.018813,7.1384,-0.014198,0.13559,0.057072,-0.10547
14,0.017761,7.143,-0.014266,0.13441,0.046525,-0.10321
14,0.016839,7.148,-0.013494,0.13357,0.036204,-0.088947
14,0.01601,7.1545,-0.012038,0.13446,0.027309,-0.066168
14,0.015245,7.1636,-0.010406,0.13763,0.020693,-0.03934
14,0.014507,7.1757,-0.0090761,0.1428,0.016759,-0.013136
14,0.013818,7.1906,-0.0080678,0.14945,0.015445,0.011959
14,0.013195,7.2075,-0.0072534,0.15725,0.016641,0.036501
14,0.012613,7.226,-0.0065928,0.16604,0.020291,0.060548
14,0.012054,7.2458,-0.0060595,0.17552,0.026346,0.084236
14,0.011525,7.2667,-0.0057762,0.18533,0.034769,0.1064
14,0.011048,7.2886,-0.0050352,0.19522,0.045409,0.13227
14,0.0106,7.3113,-0.0023228,0.20506,0.058636,0.17326
14,0.010178,7.3348,0.0036393,0.21482,0.075962,0.2387
14,0.0097886,7.3588,0.013915,0.22436,0.099832,0.3366
14,0.0094009,7.3832,0.029359,0.23352,0.13349,0.47309
14,0.0090143,7.408,0.049677,0.24225,0.1808,0.64734
14,0.0086418,7.4332,0.073837,0.25062,0.24553,0.85552
14,0.0082811,7.4587,0.10119,0.25875,0.33109,1.0922
14,0.0079168,7.4841,0.1312,0.26671,0.44031,1.3468
14,0.0072601,7.509,0.16339,0.27448,0.57499,1.6088
14,0.0076908,7.5334,0.19737,0.28206,0.73587,1.8706
14,0.012193,7.5581,0.23285,0.28951,0.92293,2.1307
14,0.023288,7.5841,0.26959,0.29684,1.136,2.3904
14,0.043076,7.6123,0.30732,0.30404,1.375,2.6491
14,0.073226,7.6428,0.34572,0.31103,1.64,2.9049
14,0.11317,7.6751,0.38449,0.31773,1.9304,3.1559
14,0.16087,7.7087,0.42355,0.32416,2.246,3.4027
14,0.215,7.7435,0.46304,0.33078,2.5863,3.6478
14,0.27446,7.7792,0.49999,0.33848,2.9511,3.8714
14,0.33831,7.8156,0.52292,0.34775,3.3382,3.9957
14,0.40579,7.8527,0.51801,0.35799,3.7378,3.9292
14,0.4763,7.8904,0.4789,0.3679,4.1307,3.631
14,0.54935,7.9284,0.40674,0.37634,4.4938,3.1105
14,0.62443,7.9668,0.30918,0.38285,4.8049,2.4196
14,0.70084,8.0053,0.20038,0.38751,5.0468,1.6532
14,0.77799,8.0435,0.09254,0.39056,5.2121,0.89266
14,0.85574,8.0815,-0.01122,0.39235,5.3014,0.15846
14,0.93436,8.1203,-0.11162,0.39316,5.3172,-0.55188
14,1.0079,8.1611,-0.20925,0.39314,5.2621,-1.2373
14,1.0531,8.2045,-0.30456,0.39246,5.1383,-1.8975
14,1.0437,8.2494,-0.39797,0.39122,4.9486,-2.5335
14,0.96998,8.2939,-0.4898,0.3895,4.6952,-3.148
14,0.83677,8.3368,-0.58039,0.38737,4.3804,-3.7448
14,0.66144,8.378,-0.66987,0.38499,4.006,-4.3252
14,0.47398,8.4178,-0.75808,0.38258,3.5734,-4.8879
14,0.29825,8.4562,-0.84489,0.38042,3.0846,-5.4305
14,0.13843,8.4934,-0.93052,0.37843,2.5416,-5.9528
14,-0.0082437,8.5298,-1.0155,0.37575,1.9463,-6.4609
14,-0.14403,8.5655,-1.0942,0.37119,1.3002,-6.9235
14,-0.27082,8.6006,-1.1435,0.36441,0.60788,-7.1973
14,-0.39014,8.6352,-1.1378,0.3564,-0.11185,-7.1257
14,-0.5033,8.6694,-1.0691,0.34801,-0.82443,-6.6591
14,-0.61142,8.7032,-0.94367,0.33905,-1.4903,-5.8381
14,-0.71531,8.7368,-0.77987,0.32886,-2.0741,-4.782
14,-0.81532,8.7704,-0.60861,0.31728,-2.5523,-3.6894
14,-0.91179,8.8043,-0.45355,0.3048,-2.9213,-2.7122
14,-1.0053,8.8384,-0.31792,0.29175,-3.1925,-1.8702
14,-1.0967,8.8718,-0.19836,0.27819,-3.3795,-1.1412
14,-1.1806,8.9035,-0.092102,0.26417,-3.4936,-0.50731
14,-1.2339,8.9334,0.003153,0.24978,-3.5444,0.047459
14,-1.2319,8.9622,0.089299,0.23508,-3.5396,0.53672
14,-1.1683,8.9899,0.1679,0.22014,-3.486,0.9727
14,-1.0506,9.0149,0.24031,0.20501,-3.3887,1.3668
14,-0.8983,9.0357,0.30756,0.18968,-3.252,1.7272
14,-0.74325,9.0523,0.37035,0.17409,-3.0793,2.0587
14,-0.60885,9.0658,0.4293,0.15815,-2.8734,2.3624
14,-0.49741,9.0769,0.48503,0.14197,-2.6372,2.6366
14,-0.40496,9.0862,0.53829,0.126,-2.3735,2.886
14,-0.32824,9.0938,0.58662,0.11067,-2.0849,3.1045
14,-0.26451,9.1001,0.61865,0.095725,-1.7745,3.2349
14,-0.21154,9.1053,0.6223,0.080935,-1.451,3.2113
14,-0.16749,9.1096,0.59446,0.067304,-1.1299,3.0134
14,-0.13079,9.1132,0.53896,0.056712,-0.82852,2.6611
14,-0.10019,9.1162,0.46502,0.04705,-0.56241,2.2029
14,-0.074616,9.1186,0.38937,0.039622,-0.34212,1.7465
14,-0.053199,9.1206,0.32379,0.033644,-0.16747,1.3633
14,-0.035231,9.1223,0.26945,0.028655,-0.031139,1.0593
14,-0.02013,9.1238,0.22442,0.02453,0.07479,0.82125
14,-0.0073736,9.1248,0.18709,0.021122,0.15691,0.63818
15,0.0151085,8.92728,-0.020819,0.91409,0.26576,-0.50083
15,0.0142494,9.05529,-0.021177,0.88077,0.21567,-0.48704
15,0.0131438,9.17695,-0.021091,0.84704,0.16697,-0.47225
15,0.0113473,9.2932,-0.020667,0.8136,0.11975,-0.4569
15,0.00817642,9.40216,-0.019995,0.78108,0.074056,-0.44145
15,0.00368425,9.50137,-0.019119,0.7498,0.029911,-0.42602
15,-0.00132187,9.58925,-0.018095,0.71986,-0.012691,-0.4109
15,-0.00596344,9.66431,-0.016966,0.69136,-0.053781,-0.39624
15,-0.00964534,9.72657,-0.015746,0.6643,-0.093405,-0.38202
15,-0.0124544,9.77778,-0.014665,0.59434,-0.13161,-0.33999
15,-0.0147124,9.81982,-0.013527,0.52872,-0.16561,-0.30343
15,-0.0164224,9.85416,-0.012303,0.46725,-0.19595,-0.27142
15,-0.0174817,9.88204,-0.010737,0.4089,-0.22309,-0.24204
15,-0.0179764,9.90477,-0.0084942,0.35315,-0.2473,-0.21297
15,-0.0180039,9.92355,-0.0053949,0.29964,-0.26859,-0.18171
15,-0.0176318,9.93914,-0.0016135,0.24779,-0.28676,-0.14822
15,-0.0169422,9.95204,0.0025282,0.19704,-0.30159,-0.11417
15,-0.0159901,9.96271,0.0065797,0.14691,-0.313,-0.081298
15,-0.0148076,9.97153,0.010181,0.097182,-0.32113,-0.051101
15,-0.0134213,9.97879,0.013418,0.048235,-0.32624,-0.022922
15,-0.0119454,9.98471,0.016483,0.00068088,-0.32854,0.0044367
15,-0.010356,9.98978,0.019309,-0.04522,-0.32809,0.030607
15,-0.00833028,9.99475,0.021739,-0.089702,-0.32503,0.05475
15,-0.00564103,9.99951,0.023801,-0.13327,-0.31956,0.076934
15,-0.00261341,10.0014,0.025547,-0.17644,-0.31186,0.097064
15,0.000457212,9.99694,0.027031,-0.21934,-0.30216,0.11578
15,0.00373452,9.98333,0.028318,-0.26196,-0.29058,0.1359
15,0.00719597,9.95813,0.029428,-0.30435,-0.27699,0.15985
15,0.0107176,9.92093,0.03038,-0.34652,-0.261,0.18784
15,0.0143812,9.87425,0.0312,-0.38852,-0.24222,0.21792
15,0.0182544,9.82119,0.031964,-0.43033,-0.22043,0.24784
15,0.0221956,9.76372,0.032655,-0.47219,-0.19564,0.27716
15,0.0259957,9.70264,0.033102,-0.51445,-0.16793,0.31287
15,0.0296264,9.63822,0.033123,-0.55674,-0.13664,0.36506
15,0.0330906,9.57066,0.033219,-0.59681,-0.10013,0.44467
15,0.0364303,9.50046,0.034109,-0.63241,-0.055667,0.55424
15,0.0396933,9.42812,0.035963,-0.66241,-0.00024306,0.68258
15,0.0428665,9.35402,0.039208,-0.68557,0.068015,0.81888
15,0.0459523,9.27848,0.044393,-0.70223,0.1499,0.95322
15,0.0489789,9.20175,0.051401,-0.71443,0.24523,1.0819
15,0.0519828,9.12405,0.059797,-0.72391,0.35342,1.207
15,0.0549549,9.0454,0.069376,-0.73146,0.47412,1.3297
15,0.0578743,8.96585,0.080031,-0.73738,0.60709,1.4512
15,0.0606053,8.88602,0.091656,-0.74181,0.75221,1.573
15,0.0638254,8.80782,0.10406,-0.74488,0.90951,1.6961
15,0.0686742,8.73213,0.1168,-0.74696,1.0791,1.8176
15,0.0756601,8.65851,0.12951,-0.74843,1.2609,1.9313
15,0.0856116,8.58699,0.14222,-0.74938,1.454,2.033
15,0.0995038,8.51647,0.15522,-0.74975,1.6573,2.1253
15,0.117183,8.44539,0.16874,-0.74947,1.8698,2.215
15,0.137849,8.37337,0.18273,-0.74859,2.0913,2.3079
15,0.160947,8.3008,0.19708,-0.74716,2.3221,2.4043
15,0.186058,8.22788,0.21172,-0.74536,2.5626,2.4864
15,0.212938,8.1546,0.22677,-0.74359,2.8112,2.5316
15,0.241217,8.08091,0.24162,-0.74237,3.0644,2.517
15,0.270034,8.00654,0.25504,-0.74081,3.316,2.4338
15,0.298717,7.93127,0.26624,-0.73709,3.5594,2.3008
15,0.327316,7.85527,0.27438,-0.73005,3.7895,2.1411
15,0.356397,7.77899,0.27856,-0.71884,4.0036,1.9814
15,0.386457,7.7028,0.27902,-0.70344,4.2018,1.8346
15,0.417445,7.62686,0.27663,-0.68468,4.3852,1.6975
15,0.449109,7.55109,0.27193,-0.66317,4.555,1.5673
15,0.481305,7.47514,0.26531,-0.63888,4.7117,1.4418
15,0.51414,7.39885,0.2572,-0.61211,4.8559,1.3203
15,0.547068,7.32308,0.24736,-0.58372,4.9879,1.1973
15,0.578757,7.2505,0.23534,-0.55493,5.1076,1.0677
15,0.608144,7.18434,0.22103,-0.52712,5.2144,0.93172
15,0.634364,7.1269,0.20349,-0.50114,5.3076,0.783
15,0.656621,7.0788,0.18236,-0.477,5.3859,0.61698
15,0.675218,7.03851,0.15844,-0.4542,5.4476,0.4359
15,0.691116,7.004,0.13231,-0.43225,5.4912,0.23967
15,0.704807,6.97446,0.10432,-0.4109,5.5151,0.029549
15,0.716673,6.95012,0.074826,-0.38996,5.5181,-0.18296
15,0.727345,6.93039,0.044047,-0.36929,5.4998,-0.38486
15,0.735937,6.91347,0.0123,-0.34936,5.4613,-0.56292
15,0.740715,6.89667,-0.020071,-0.33158,5.405,-0.70954
15,0.740772,6.87702,-0.052411,-0.3175,5.3341,-0.82937
15,0.734304,6.85299,-0.083482,-0.30771,5.2511,-0.93116
15,0.721122,6.82498,-0.11202,-0.30142,5.158,-1.0304
15,0.703333,6.7944,-0.13764,-0.29714,5.055,-1.1364
15,0.682062,6.76237,-0.16095,-0.29399,4.9413,-1.2482
15,0.657753,6.72928,-0.18251,-0.29241,4.8165,-1.3645
15,0.630956,6.69522,-0.20262,-0.29334,4.6801,-1.4836
15,0.602234,6.66028,-0.22189,-0.29661,4.5317,-1.6074
15,0.571667,6.62437,-0.23934,-0.30073,4.371,-1.7264
15,0.538615,6.58735,-0.25288,-0.30317,4.1983,-1.8229
15,0.503323,6.54933,-0.26133,-0.30114,4.016,-1.8877
15,0.4674,6.51148,-0.26297,-0.29338,3.8273,-1.9053
15,0.432589,6.47596,-0.25792,-0.28068,3.6367,-1.8745
15,0.399934,6.44424,-0.24859,-0.26478,3.4493,-1.8136
15,0.369208,6.41602,-0.23612,-0.24698,3.2679,-1.7306
15,0.339788,6.38964,-0.22082,-0.22775,3.0949,-1.627
15,0.311435,6.36344,-0.20321,-0.20723,2.9322,-1.5065
15,0.283557,6.33718,-0.18383,-0.18552,2.7815,-1.3723
15,0.257257,6.31201,-0.16268,-0.16257,2.6443,-1.2245
15,0.23496,6.29032,-0.13908,-0.13846,2.5218,-1.0608
15,0.218106,6.27474,-0.11363,-0.11367,2.4158,-0.88823
15,0.208363,6.26623,-0.088446,-0.089224,2.3269,-0.72281
15,0.205277,6.26362,-0.065667,-0.066389,2.2547,-0.57689
15,0.206147,6.26485,-0.046506,-0.045689,2.197,-0.45661
15,0.209828,6.26842,-0.030589,-0.026702,2.1513,-0.3592
15,0.216111,6.27378,-0.017034,-0.0084342,2.1154,-0.27899
15,0.224533,6.28075,-0.0054242,0.0099028,2.0875,-0.21423
15,0.234567,6.28923,0.0047786,0.027961,2.0661,-0.16115
15,0.246317,6.29923,0.013219,0.044401,2.0499,-0.1213
15,0.260459,6.31043,0.018853,0.05739,2.0378,-0.1005
15,0.276068,6.322,0.021098,0.065397,2.0278,-0.10061
15,0.290507,6.33303,0.019237,0.068237,2.0177,-0.1275
15,0.301255,6.34318,0.013591,0.06721,2.005,-0.18052
15,0.306921,6.35286,0.0055973,0.064452,1.9869,-0.24894
15,0.308029,6.36261,-0.0041024,0.061914,1.962,-0.32842
15,0.305721,6.37278,-0.015358,0.06044,1.9292,-0.4184
15,0.300587,6.38325,-0.027887,0.059753,1.8873,-0.5167
15,0.293114,6.3931,-0.041392,0.059113,1.8357,-0.62067
15,0.283695,6.40081,-0.055966,0.058023,1.7736,-0.73146
15,0.272665,6.4051,-0.071906,0.056688,1.7004,-0.85407
15,0.260302,6.40553,-0.088369,0.055406,1.615,-0.98289
15,0.246837,6.4027,-0.10351,0.053798,1.5167,-1.1009
15,0.23246,6.39804,-0.11413,0.050589,1.4067,-1.1764
15,0.217342,6.39375,-0.12139,0.047033,1.289,-1.2204
15,0.201623,6.39225,-0.1257,0.042428,1.167,-1.2366
15,0.185395,6.39466,-0.12777,0.03648,1.0433,-1.2308
15,0.168758,6.40026,-0.12797,0.02931,0.92024,-1.2044
15,0.151784,6.40746,-0.12662,0.021966,0.79979,-1.1596
15,0.134385,6.41527,-0.12396,0.016375,0.68383,-1.101
15,0.116648,6.4238,-0.12021,0.014536,0.57373,-1.0348
15,0.0993295,6.43281,-0.11555,0.01773,0.47025,-0.96713
15,0.0834887,6.44062,-0.10882,0.019145,0.37353,-0.89687
15,0.0729855,6.44436,-0.10698,0.022605,0.28385,-0.58378
15,0.0641339,6.44692,-0.10452,0.026243,0.22547,-0.57064
15,0.0566322,6.44747,-0.10142,0.028673,0.1684,-0.55454
15,0.0501797,6.44573,-0.097618,0.028957,0.11295,-0.53463
15,0.0446376,6.44187,-0.093035,0.027153,0.059488,-0.51028
15,0.0398733,6.43703,-0.087555,0.02395,0.0084602,-0.48102
16,-0.0038238,7.7151,0.035883,-1.2958,-0.27054,0.69974
16,-0.0019656,7.5667,0.029389,-1.3424,-0.20057,0.6436
16,-0.00044148,7.4113,0.024168,-1.3809,-0.13621,0.58774
16,0.00077986,7.2519,0.01975,-1.4092,-0.077434,0.5331
16,0.0017639,7.0915,0.016088,-1.4265,-0.024124,0.48157
16,0.0025517,6.9322,0.013066,-1.4337,0.024033,0.4317
16,0.0031639,6.7744,0.010572,-1.4331,0.067203,0.38315
16,0.003644,6.6177,0.0085092,-1.4264,0.10552,0.33546
16,0.0040281,6.4615,0.0068156,-1.4137,0.13906,0.28822
16,0.0043063,6.3055,0.0055397,-1.3936,0.16789,0.24277
16,0.0045364,6.1506,0.0045104,-1.365,0.19216,0.19983
16,0.004819,5.9991,0.0035602,-1.3278,0.21215,0.15839
16,0.0050264,5.8541,0.0028137,-1.2821,0.22799,0.12077
16,0.0050795,5.7179,0.0023145,-1.2295,0.24006,0.089485
16,0.0050972,5.5916,0.0020003,-1.172,0.24901,0.063767
16,0.0050986,5.4745,0.0018522,-1.1111,0.25539,0.043235
16,0.0050866,5.3644,0.0018613,-1.0476,0.25971,0.027744
16,0.0050635,5.2597,0.0019807,-0.98202,0.26249,0.016275
16,0.0050444,5.1604,0.0021782,-0.91436,0.26411,0.0081012
16,0.0051208,5.0683,0.002493,-0.84498,0.26492,0.0036316
16,0.0051971,4.985,0.0027402,-0.77511,0.26529,0.0012396
16,0.0051549,4.9111,0.002846,-0.70667,0.26541,0.00083965
16,0.0051859,4.8472,0.0036509,-0.64073,0.26549,0.012387
16,0.0054089,4.7928,0.0061725,-0.57711,0.26673,0.044701
16,0.0057645,4.7475,0.011161,-0.51497,0.2712,0.10746
16,0.0062561,4.7101,0.019183,-0.45288,0.28195,0.20994
16,0.0068865,4.6792,0.02996,-0.38973,0.30294,0.34624
16,0.0076055,4.6537,0.042863,-0.32539,0.33757,0.50681
16,0.0083846,4.6328,0.057518,-0.26074,0.38825,0.68604
16,0.0092923,4.6156,0.073585,-0.19731,0.45685,0.87887
16,0.010017,4.6003,0.090851,-0.13588,0.54474,1.0823
16,0.010511,4.5858,0.10917,-0.076592,0.65297,1.2937
16,0.012328,4.5727,0.12822,-0.019619,0.78234,1.5076
16,0.017425,4.5636,0.14777,0.034108,0.9331,1.7215
16,0.027419,4.5617,0.16724,0.082035,1.1053,1.9317
16,0.043465,4.5687,0.18341,0.12201,1.2984,2.1046
16,0.065006,4.5849,0.1932,0.15289,1.5089,2.2058
16,0.090789,4.6089,0.1963,0.17439,1.7295,2.2341
16,0.12008,4.6389,0.19514,0.18958,1.9529,2.2171
16,0.15229,4.6737,0.19414,0.20349,2.1746,2.2012
16,0.1869,4.7132,0.19885,0.22073,2.3947,2.2458
16,0.22349,4.7579,0.21221,0.24505,2.6193,2.3803
16,0.26164,4.808,0.23196,0.27706,2.8573,2.5739
16,0.30096,4.8611,0.25478,0.31277,3.1147,2.7889
16,0.34024,4.9116,0.27699,0.34615,3.3936,2.9856
16,0.37308,4.9541,0.29513,0.37256,3.6922,3.1285
16,0.39329,4.985,0.30802,0.38972,4.005,3.2116
16,0.40021,5.0025,0.31531,0.39721,4.3262,3.2381
16,0.39866,5.012,0.31682,0.39579,4.65,3.2097
16,0.39758,5.0226,0.31335,0.38686,4.9709,3.137
16,0.40771,5.0418,0.30587,0.37148,5.2847,3.0298
16,0.43493,5.0759,0.29508,0.35023,5.5876,2.8959
16,0.47625,5.1268,0.28161,0.32341,5.8772,2.7437
16,0.52699,5.1892,0.26597,0.293,6.1516,2.5771
16,0.5814,5.254,0.24956,0.26418,6.4093,2.4047
16,0.63373,5.3138,0.2389,0.24204,6.6498,2.2892
16,0.68104,5.3644,0.24042,0.23044,6.8787,2.2976
16,0.7214,5.4033,0.25449,0.23139,7.1084,2.4299
16,0.75372,5.4305,0.27538,0.24004,7.3514,2.6252
16,0.77899,5.4474,0.29366,0.24847,7.614,2.7918
16,0.79864,5.4562,0.29853,0.25072,7.8931,2.8222
16,0.81366,5.4584,0.28509,0.24152,8.1754,2.6734
16,0.82486,5.4548,0.25701,0.21837,8.4427,2.391
16,0.8329,5.4471,0.21923,0.18458,8.6818,2.026
16,0.83936,5.4399,0.17667,0.14754,8.8844,1.6225
16,0.85087,5.4382,0.1333,0.11432,9.0466,1.2123
16,0.87414,5.4458,0.091692,0.090175,9.1679,0.81256
16,0.90918,5.4652,0.054196,0.078528,9.2491,0.44129
16,0.94942,5.4921,0.022354,0.079824,9.2933,0.11315
16,0.9849,5.5195,-0.0048296,0.091958,9.3046,-0.18007
16,1.0048,5.5432,-0.028957,0.11294,9.2866,-0.45102
16,1.0051,5.5589,-0.05045,0.14195,9.2415,-0.70299
16,0.99027,5.5635,-0.068915,0.17878,9.1712,-0.93129
16,0.96545,5.5583,-0.08502,0.22217,9.078,-1.1392
16,0.93474,5.5491,-0.10055,0.26922,8.9641,-1.3399
16,0.90034,5.5425,-0.11948,0.3177,8.8301,-1.5662
16,0.86443,5.5447,-0.14544,0.36653,8.6735,-1.8531
16,0.82979,5.5604,-0.17757,0.41518,8.4882,-2.1963
16,0.79843,5.5901,-0.21142,0.46528,8.2686,-2.5514
16,0.76933,5.6314,-0.24141,0.51863,8.0134,-2.8654
16,0.74073,5.6821,-0.2618,0.57551,7.7269,-3.0815
16,0.71276,5.7423,-0.27152,0.63664,7.4187,-3.1904
16,0.68703,5.8123,-0.27412,0.70315,7.0997,-3.2319
16,0.66286,5.8914,-0.27337,0.77444,6.7765,-3.2408
16,0.63825,5.9784,-0.27126,0.84739,6.4524,-3.2313
16,0.61191,6.0736,-0.26763,0.91754,6.1293,-3.1974
16,0.58327,6.1789,-0.26289,0.98046,5.8096,-3.1393
16,0.55404,6.2956,-0.2582,1.0331,5.4956,-3.0678
16,0.52658,6.4226,-0.25463,1.0758,5.1889,-2.9952
16,0.50208,6.5568,-0.25141,1.1109,4.8893,-2.9181
16,0.48116,6.6942,-0.24739,1.1387,4.5975,-2.8272
16,0.46206,6.8322,-0.24298,1.1581,4.3148,-2.7285
16,0.44203,6.9698,-0.24007,1.169,4.042,-2.6505
16,0.41871,7.1072,-0.23762,1.1728,3.7769,-2.5946
16,0.39223,7.2438,-0.23275,1.1719,3.5175,-2.5329
16,0.36508,7.3776,-0.22492,1.1532,3.2642,-2.4112
16,0.33865,7.5056,-0.21484,1.1279,3.023,-2.277
16,0.31339,7.6266,-0.20377,1.0941,2.7953,-2.1316
16,0.28918,7.7418,-0.19312,1.0517,2.5822,-1.9863
16,0.26651,7.8531,-0.18357,1.0024,2.3836,-1.8502
16,0.24595,7.9595,-0.17548,0.94883,2.1985,-1.7343
16,0.2268,8.0586,-0.168,0.89278,2.0251,-1.6377
16,0.20689,8.1502,-0.15983,0.83504,1.8613,-1.5427
16,0.18762,8.2371,-0.14982,0.77578,1.7071,-1.4386
16,0.17276,8.3221,-0.13658,0.70748,1.5632,-1.3023
16,0.16207,8.3799,-0.12948,0.67434,1.433,-0.81503
16,0.1536,8.4346,-0.12199,0.64064,1.3515,-0.76714
16,0.1465,8.4837,-0.11431,0.60717,1.2748,-0.722
16,0.14033,8.526,-0.10632,0.57312,1.2026,-0.67859
16,0.13493,8.5616,-0.098299,0.53711,1.1347,-0.639
16,0.13021,8.5919,-0.09063,0.49951,1.0708,-0.60861
16,0.12606,8.6178,-0.082874,0.46169,1.0099,-0.58251
16,0.12237,8.6399,-0.073192,0.4238,0.95168,-0.52938
16,0.11906,8.6588,-0.062327,0.38338,0.89874,-0.4348
16,0.11906,8.6588,-0.062327,0.38338,0.85526,-0.4348
17,0.018195,3.4102,-0.058501,0.024578,0.20159,-0.95355
17,0.01521,3.4104,-0.048087,0.069124,0.10623,-0.79858
17,0.012859,3.4181,-0.039524,0.11006,0.026375,-0.6663
17,0.010914,3.4374,-0.032421,0.14729,-0.040255,-0.55254
17,0.0092398,3.4683,-0.026505,0.17891,-0.095509,-0.45489
17,0.0078939,3.5072,-0.021618,0.20351,-0.141,-0.37209
17,0.0067805,3.5483,-0.017588,0.2213,-0.17821,-0.30206
17,0.0058988,3.5869,-0.014267,0.23403,-0.20841,-0.24314
17,0.0052222,3.6201,-0.011533,0.24458,-0.23273,-0.19367
17,0.0046887,3.6479,-0.009284,0.25588,-0.25209,-0.15207
17,0.0043263,3.6736,-0.0074566,0.26896,-0.2673,-0.11769
17,0.0040529,3.7017,-0.0059844,0.28154,-0.27907,-0.089434
17,0.0037872,3.7348,-0.0048125,0.28946,-0.28801,-0.065986
17,0.0036068,3.7709,-0.0038365,0.29039,-0.29461,-0.045504
17,0.0035103,3.8056,-0.0030093,0.28566,-0.29916,-0.028175
17,0.0034436,3.8356,-0.0024171,0.27905,-0.30198,-0.014646
17,0.0034016,3.8603,-0.001993,0.27427,-0.30344,0.001978
17,0.0033669,3.8815,-0.001379,0.27357,-0.30325,0.031093
17,0.0033381,3.9018,5.70E-05,0.27837,-0.30014,0.079369
17,0.0033143,3.9237,0.0028638,0.28921,-0.2922,0.14754
17,0.0032815,3.9481,0.0071206,0.30462,-0.27745,0.23038
17,0.0032412,3.9735,0.012616,0.32164,-0.25441,0.32448
17,0.0032341,3.997,0.019111,0.338,-0.22196,0.42746
17,0.0032415,4.0181,0.026372,0.35402,-0.17921,0.53582
17,0.0032212,4.0396,0.034275,0.37196,-0.12563,0.64794
17,0.0030597,4.0653,0.042734,0.39349,-0.060838,0.76272
17,0.0027944,4.0968,0.05164,0.4182,0.015435,0.8792
17,0.0031409,4.134,0.060924,0.44439,0.10336,0.99641
17,0.0053361,4.1768,0.070525,0.47034,0.203,1.1131
17,0.010416,4.2263,0.080383,0.49487,0.31431,1.2279
17,0.018567,4.2828,0.090466,0.5174,0.43709,1.3422
17,0.029286,4.345,0.10074,0.53851,0.57131,1.4675
17,0.042009,4.4108,0.11113,0.55936,0.71806,1.6161
17,0.056351,4.4789,0.12165,0.57997,0.87967,1.7982
17,0.07206,4.5495,0.13229,0.59847,1.0595,2.0104
17,0.088911,4.6226,0.14316,0.61258,1.2605,2.2349
17,0.10668,4.6967,0.15419,0.62163,1.484,2.4431
17,0.12521,4.7702,0.16467,0.62612,1.7283,2.6087
17,0.14439,4.8425,0.17337,0.6258,1.9892,2.7227
17,0.16408,4.9134,0.17921,0.61955,2.2615,2.7863
17,0.18421,4.9829,0.18202,0.60672,2.5401,2.8113
17,0.20471,5.0505,0.18229,0.58819,2.8212,2.8064
17,0.2255,5.1158,0.18059,0.56561,3.1019,2.7767
17,0.24654,5.1781,0.17727,0.54007,3.3795,2.7269
17,0.26781,5.2365,0.17261,0.51181,3.6522,2.6607
17,0.28937,5.2904,0.16682,0.48115,3.9183,2.5813
17,0.31117,5.3401,0.1601,0.44897,4.1764,2.4911
17,0.33249,5.3862,0.15264,0.41623,4.4255,2.3935
17,0.35207,5.4284,0.14454,0.38345,4.6649,2.2917
17,0.36885,5.4654,0.13593,0.35073,4.894,2.1896
17,0.38261,5.4962,0.12688,0.31828,5.113,2.0843
17,0.39387,5.5214,0.11745,0.28636,5.3214,1.9471
17,0.40319,5.542,0.10755,0.25512,5.5161,1.7483
17,0.4109,5.559,0.097679,0.22491,5.691,1.4729
17,0.41728,5.5732,0.088743,0.19701,5.8383,1.1441
17,0.42254,5.5849,0.081463,0.17319,5.9527,0.81392
17,0.42688,5.5946,0.07629,0.15294,6.0341,0.53256
17,0.43049,5.6027,0.07247,0.13336,6.0873,0.31616
17,0.43347,5.6094,0.069969,0.11202,6.1189,0.15552
17,0.43594,5.6149,0.06969,0.087403,6.1345,0.051455
17,0.43796,5.6195,0.071624,0.058203,6.1396,-0.0042059
17,0.43962,5.6232,0.075106,0.025577,6.1392,-0.022538
17,0.4406,5.626,0.079362,-0.007764,6.137,-0.015033
17,0.4419,5.6279,0.084251,-0.039762,6.1355,0.012978
17,0.44529,5.6306,0.089481,-0.068905,6.1367,0.054653
17,0.4523,5.6368,0.094242,-0.095561,6.1422,0.10003
17,0.46375,5.646,0.098444,-0.12129,6.1522,0.14883
17,0.47743,5.653,0.10209,-0.14705,6.1671,0.19966
17,0.49201,5.6525,0.10538,-0.17211,6.1871,0.25129
17,0.50822,5.6402,0.10862,-0.19486,6.2122,0.30224
17,0.52585,5.6126,0.1114,-0.21392,6.2424,0.34813
17,0.54408,5.5725,0.11369,-0.22825,6.2772,0.40412
17,0.56191,5.5265,0.11666,-0.23743,6.3176,0.49637
17,0.5794,5.4795,0.12005,-0.2417,6.3673,0.6318
17,0.59624,5.4353,0.12272,-0.24376,6.4305,0.792
17,0.61103,5.3938,0.12262,-0.2485,6.5097,0.93349
17,0.62377,5.352,0.11728,-0.25736,6.603,1.0094
17,0.63467,5.3086,0.10802,-0.26579,6.704,1.0196
17,0.64424,5.2651,0.096333,-0.2671,6.8059,0.9783
17,0.65317,5.2252,0.082543,-0.2551,6.9037,0.88452
17,0.66077,5.1916,0.067957,-0.22549,6.9922,0.74931
17,0.667,5.1667,0.053836,-0.18146,7.0671,0.59225
17,0.67392,5.1511,0.040371,-0.13061,7.1263,0.42626
17,0.682,5.1445,0.02637,-0.078691,7.169,0.24683
17,0.69074,5.143,0.011516,-0.029022,7.1937,0.056073
17,0.69753,5.1398,-0.0033061,0.019853,7.1993,-0.13721
17,0.69832,5.1313,-0.018207,0.071612,7.1855,-0.33762
17,0.69347,5.1214,-0.032949,0.12748,7.1518,-0.54215
17,0.68467,5.1183,-0.047751,0.18436,7.0976,-0.74819
17,0.67331,5.13,-0.06305,0.2375,7.0227,-0.95474
17,0.66177,5.1617,-0.077956,0.28354,6.9273,-1.1487
17,0.65176,5.2096,-0.09223,0.32142,6.8124,-1.3262
17,0.64266,5.2652,-0.10766,0.35203,6.6798,-1.5057
17,0.63214,5.3221,-0.12513,0.37727,6.5292,-1.6981
17,0.61927,5.3773,-0.14489,0.40089,6.3594,-1.9104
17,0.60441,5.4335,-0.16497,0.42782,6.1684,-2.1278
17,0.58736,5.4953,-0.18165,0.4608,5.9556,-2.3135
17,0.56877,5.5635,-0.19411,0.49753,5.7242,-2.4564
17,0.54874,5.6339,-0.20333,0.5317,5.4786,-2.5596
17,0.52707,5.7002,-0.21095,0.55708,5.2227,-2.6329
17,0.50485,5.7587,-0.21913,0.57073,4.9594,-2.695
17,0.48254,5.8095,-0.22917,0.57597,4.6899,-2.7632
17,0.4586,5.8552,-0.23995,0.57924,4.4135,-2.8338
17,0.43173,5.8991,-0.24894,0.58445,4.1302,-2.8865
17,0.40096,5.9448,-0.25276,0.57359,3.8415,-2.8819
17,0.36759,5.9954,-0.2545,0.56209,3.5533,-2.8585
17,0.33502,6.0529,-0.25374,0.54645,3.2675,-2.8101
17,0.30526,6.1164,-0.25108,0.52643,2.9865,-2.7433
17,0.27801,6.1817,-0.24674,0.50594,2.7121,-2.6634
17,0.25141,6.2442,-0.24078,0.48995,2.4458,-2.5741
17,0.2235,6.3031,-0.23384,0.4814,2.1884,-2.4838
17,0.19341,6.3616,-0.22634,0.47953,1.94,-2.3966
17,0.16277,6.4237,-0.2175,0.48096,1.7004,-2.3027
17,0.13427,6.491,-0.20407,0.45904,1.4701,-2.1557
17,0.11375,6.5245,-0.19861,0.4591,1.2545,-1.3374
17,0.09541,6.5576,-0.1911,0.4565,1.1208,-1.2858
17,0.079886,6.5881,-0.18319,0.44957,0.9922,-1.2287
17,0.066614,6.6164,-0.17604,0.43793,0.86933,-1.1774
17,0.055253,6.6457,-0.16961,0.42363,0.75159,-1.1335
17,0.045513,6.6801,-0.16272,0.40925,0.63825,-1.0879
17,0.037165,6.7215,-0.15377,0.39539,0.52946,-1.0264
17,0.029861,6.7686,-0.14151,0.37962,0.42682,-0.93666
17,0.023597,6.8171,-0.12652,0.35763,0.33315,-0.82119
17,0.023597,6.8171,-0.12652,0.35763,0.25103,-0.82119
18,-0.00640659,13.1354,0.11967,-0.50296,-0.26216,0.49944
18,0.00541377,13.0971,0.1154,-0.55088,-0.21222,0.50154
18,0.0154952,13.0523,0.11092,-0.593,-0.16206,0.49754
18,0.0241379,12.9991,0.10106,-0.62995,-0.11231,0.47447
18,0.0314063,12.9357,0.088728,-0.65796,-0.064864,0.4371
18,0.0373929,12.8612,0.074975,-0.68031,-0.021153,0.39032
18,0.042306,12.7764,0.060958,-0.70028,0.017879,0.33948
18,0.0463046,12.6842,0.047389,-0.72083,0.051826,0.28803
18,0.0495467,12.5873,0.035064,-0.7437,0.080629,0.24002
18,0.0522025,12.4883,0.024322,-0.76807,0.10463,0.19732
18,0.0544917,12.39,0.014909,-0.79197,0.12436,0.15916
18,0.0563987,12.2947,0.0066739,-0.81344,0.14028,0.12511
18,0.0572524,12.204,-0.00059255,-0.83101,0.15279,0.095598
18,0.0563265,12.1181,-0.007058,-0.84283,0.16235,0.066007
18,0.0535205,12.0356,-0.012604,-0.8464,0.16895,0.028916
18,0.0493433,11.9552,-0.017383,-0.84031,0.17184,-0.021375
18,0.0444399,11.8756,-0.022363,-0.82552,0.1697,-0.086993
18,0.0390277,11.7956,-0.02855,-0.80498,0.161,-0.16516
18,0.0335106,11.7147,-0.036425,-0.78242,0.14449,-0.25127
18,0.0283146,11.6331,-0.045493,-0.76097,0.11936,-0.33843
18,0.0234108,11.5514,-0.05491,-0.74317,0.085519,-0.42224
18,0.0187616,11.4703,-0.063418,-0.73052,0.043295,-0.49709
18,0.0143101,11.3903,-0.069798,-0.72234,-0.0064142,-0.55718
18,0.010022,11.3135,-0.07374,-0.71637,-0.062132,-0.60125
18,0.00619816,11.2429,-0.075264,-0.71013,-0.12226,-0.6297
18,0.00262681,11.1805,-0.074972,-0.70228,-0.18523,-0.64753
18,-0.00242041,11.1254,-0.073585,-0.69238,-0.24998,-0.66016
18,-0.0107945,11.0742,-0.071378,-0.67996,-0.316,-0.66891
18,-0.0233027,11.0224,-0.068808,-0.66483,-0.38289,-0.67528
18,-0.0387836,10.9664,-0.06636,-0.64742,-0.45042,-0.68099
18,-0.0553285,10.9036,-0.064032,-0.62879,-0.51851,-0.68548
18,-0.070437,10.8336,-0.06181,-0.61018,-0.58706,-0.68763
18,-0.0823437,10.7594,-0.059683,-0.59253,-0.65583,-0.69017
18,-0.0911539,10.6854,-0.057738,-0.57706,-0.72484,-0.68769
18,-0.0970077,10.6154,-0.055965,-0.56522,-0.79361,-0.66861
18,-0.1006,10.5506,-0.053228,-0.55775,-0.86047,-0.61858
18,-0.102729,10.4908,-0.047055,-0.554,-0.92233,-0.52807
18,-0.103728,10.4357,-0.035005,-0.55164,-0.97514,-0.39802
18,-0.104106,10.3851,-0.01581,-0.54707,-1.0149,-0.23425
18,-0.104406,10.3383,0.0090856,-0.5369,-1.0384,-0.048482
18,-0.104654,10.2939,0.037131,-0.51879,-1.0432,0.14985
18,-0.104859,10.2499,0.065504,-0.49248,-1.0282,0.34664
18,-0.105055,10.2052,0.092425,-0.46076,-0.99356,0.53193
18,-0.105454,10.1593,0.11807,-0.42773,-0.94037,0.70659
18,-0.105732,10.1125,0.14247,-0.39649,-0.86971,0.87105
18,-0.103829,10.065,0.16593,-0.36802,-0.78261,1.0307
18,-0.0965297,10.0174,0.18882,-0.34212,-0.67953,1.1908
18,-0.080804,9.9709,0.21127,-0.31877,-0.56046,1.3528
18,-0.0549222,9.92828,0.23355,-0.29812,-0.42517,1.5184
18,-0.0206123,9.8926,0.256,-0.27987,-0.27333,1.6892
18,0.0189326,9.86605,0.27869,-0.26287,-0.10442,1.8645
18,0.0605707,9.84868,0.30158,-0.24557,0.082034,2.0406
18,0.102506,9.83784,0.32463,-0.22687,0.2861,2.2179
18,0.14499,9.82992,0.34814,-0.20638,0.50789,2.3946
18,0.18794,9.8224,0.37158,-0.18454,0.74735,2.5617
18,0.231264,9.81458,0.39229,-0.16228,1.0035,2.6998
18,0.274909,9.80656,0.40697,-0.14075,1.2735,2.7921
18,0.318821,9.79813,0.41283,-0.12148,1.5527,2.8302
18,0.362992,9.78882,0.40782,-0.1062,1.8357,2.8088
18,0.407602,9.77856,0.39335,-0.095843,2.1166,2.7372
18,0.452732,9.76813,0.373,-0.089811,2.3903,2.6334
18,0.498294,9.75876,0.34992,-0.086394,2.6537,2.5142
18,0.544212,9.75146,0.32635,-0.082863,2.9051,2.3919
18,0.59082,9.74658,0.3028,-0.076579,3.1443,2.2691
18,0.637419,9.74342,0.27906,-0.06653,3.3712,2.1445
18,0.680747,9.74048,0.25507,-0.053163,3.5856,2.0173
18,0.717407,9.73592,0.23088,-0.037182,3.7874,1.8875
18,0.744852,9.72794,0.20652,-0.018664,3.9761,1.753
18,0.760726,9.71587,0.18197,0.002618,4.1514,1.61
18,0.766079,9.70092,0.15718,0.02637,4.3124,1.4555
18,0.764927,9.68643,0.1319,0.05116,4.458,1.2888
18,0.76042,9.6759,0.1054,0.074537,4.5869,1.1102
18,0.755205,9.67211,0.076863,0.094343,4.6979,0.91747
18,0.750587,9.67677,0.045338,0.10909,4.7896,0.70639
18,0.74607,9.68934,0.01086,0.11849,4.8603,0.47767
18,0.741398,9.70826,-0.023795,0.12406,4.908,0.24772
18,0.736664,9.7322,-0.055472,0.12828,4.9328,0.034413
18,0.731854,9.7608,-0.081908,0.13352,4.9362,-0.15029
18,0.726939,9.79405,-0.10096,0.14086,4.9212,-0.29523
18,0.721952,9.8313,-0.1132,0.14926,4.8917,-0.40429
18,0.716537,9.87045,-0.12189,0.15537,4.8513,-0.49559
18,0.709096,9.90784,-0.1296,0.1558,4.8017,-0.5824
18,0.697938,9.94015,-0.13845,0.14808,4.7435,-0.67545
18,0.681495,9.96476,-0.14946,0.13104,4.6759,-0.77941
18,0.65914,9.98039,-0.16185,0.1056,4.598,-0.89045
18,0.633156,9.9886,-0.17505,0.0733,4.5089,-1.0074
18,0.606462,9.99247,-0.1888,0.035381,4.4082,-1.1306
18,0.581036,9.99499,-0.20278,-0.0076098,4.2951,-1.2573
18,0.558804,9.9976,-0.21685,-0.055448,4.1694,-1.383
18,0.539674,9.99944,-0.2311,-0.10744,4.0311,-1.5062
18,0.521138,9.99717,-0.24523,-0.16169,3.8805,-1.6253
18,0.501223,9.9875,-0.2576,-0.21473,3.7179,-1.733
18,0.478299,9.96828,-0.26645,-0.26324,3.5446,-1.8205
18,0.451674,9.93885,-0.27028,-0.30454,3.3626,-1.879
18,0.422369,9.90053,-0.26834,-0.33715,3.1747,-1.9033
18,0.391295,9.85486,-0.26215,-0.36216,2.9844,-1.9016
18,0.359073,9.80296,-0.25368,-0.38179,2.7942,-1.8854
18,0.326284,9.74558,-0.24435,-0.39789,2.6057,-1.8616
18,0.293235,9.68316,-0.2356,-0.41156,2.4195,-1.8364
18,0.259748,9.61642,-0.22775,-0.42353,2.2359,-1.8102
18,0.22607,9.54707,-0.21978,-0.43362,2.0548,-1.7768
18,0.193905,9.47838,-0.21068,-0.44164,1.8772,-1.7325
18,0.165032,9.41366,-0.1996,-0.44774,1.7039,-1.6747
18,0.140936,9.35569,-0.18634,-0.45217,1.5364,-1.603
18,0.122462,9.30609,-0.17148,-0.45558,1.3761,-1.5205
18,0.108865,9.26429,-0.1556,-0.45809,1.2241,-1.4302
18,0.0991028,9.2289,-0.13924,-0.45944,1.0811,-1.3344
18,0.0923302,9.19921,-0.12286,-0.45943,0.94762,-1.2347
18,0.0876093,9.17448,-0.10666,-0.45787,0.82416,-1.1305
18,0.0841776,9.15238,-0.090516,-0.4549,0.71111,-1.0195
18,0.0815756,9.12994,-0.074474,-0.45156,0.60916,-0.90206
18,0.0798705,9.10423,-0.059359,-0.45013,0.51895,-0.78399
18,0.0790917,9.0728,-0.045481,-0.43085,0.44056,-0.67764
18,0.0789871,9.03452,-0.034176,-0.41612,0.37279,-0.5858
18,0.0794139,8.98937,-0.025876,-0.407,0.31421,-0.51221
18,0.080096,8.93867,-0.020243,-0.40348,0.26299,-0.4555
18,0.0805944,8.88408,-0.016789,-0.40531,0.21744,-0.41297
18,0.0805724,8.82671,-0.014987,-0.41309,0.17614,-0.38199
18,0.0799093,8.76742,-0.0141,-0.4274,0.13794,-0.35914
18,0.0787158,8.70662,-0.013454,-0.44666,0.10203,-0.34085
18,0.077123,8.64394,-0.012607,-0.46774,0.067943,-0.32349
19,0.07229,5.6973,0.042284,-0.088673,-0.28451,0.33526
19,0.076984,5.6862,0.043977,-0.10068,-0.25099,0.37096
19,0.081596,5.6763,0.045125,-0.11651,-0.21389,0.40032
19,0.086059,5.6674,0.045598,-0.13555,-0.17386,0.42269
19,0.090322,5.6593,0.045675,-0.15742,-0.13159,0.44129
19,0.09434,5.652,0.045469,-0.18221,-0.08746,0.45781
19,0.098111,5.6454,0.04498,-0.20974,-0.041679,0.47216
19,0.10165,5.6396,0.044035,-0.23897,0.0055368,0.48245
19,0.10496,5.6345,0.042478,-0.26895,0.053782,0.48689
19,0.10804,5.6283,0.040465,-0.299,0.10247,0.83457
19,0.11418,5.6121,0.037803,-0.33884,0.18593,0.85711
19,0.12044,5.5889,0.034726,-0.38144,0.27164,0.87746
19,0.12633,5.5582,0.031382,-0.42634,0.35938,0.89683
19,0.1315,5.5199,0.027857,-0.47314,0.44907,0.91408
19,0.13618,5.4736,0.024216,-0.52156,0.54048,0.92496
19,0.14041,5.4181,0.020522,-0.57132,0.63297,0.92662
19,0.14413,5.3531,0.016802,-0.62221,0.72563,0.91923
19,0.14693,5.2795,0.013066,-0.67435,0.81756,0.90507
19,0.14837,5.1987,0.0093605,-0.7274,0.90806,0.88571
19,0.14859,5.1117,0.0056936,-0.77965,0.99663,0.86205
19,0.1479,5.0196,0.00039962,-0.82557,1.0828,0.81257
19,0.14644,4.9233,-0.0050658,-0.86577,1.1641,0.75416
19,0.14436,4.8236,-0.010344,-0.89937,1.2395,0.69166
19,0.14177,4.7211,-0.015184,-0.9252,1.3087,0.62956
19,0.13875,4.6162,-0.019643,-0.94201,1.3716,0.56447
19,0.13538,4.5094,-0.023574,-0.94833,1.4281,0.49628
19,0.13172,4.401,-0.026913,-0.94378,1.4777,0.42867
19,0.12779,4.2909,-0.029543,-0.9299,1.5206,0.36366
19,0.12368,4.1797,-0.031284,-0.9084,1.5569,0.30399
19,0.11943,4.069,-0.032237,-0.88057,1.5873,0.2495
19,0.11498,3.961,-0.032592,-0.84749,1.6123,0.19808
19,0.1103,3.8573,-0.032438,-0.81008,1.6321,0.14931
19,0.10564,3.7595,-0.031869,-0.76911,1.647,0.10302
19,0.10113,3.6695,-0.030971,-0.72518,1.6573,0.058949
19,0.096891,3.5895,-0.029787,-0.67882,1.6632,0.019542
19,0.093265,3.5215,-0.02838,-0.63043,1.6652,-0.012962
19,0.090304,3.4656,-0.026775,-0.58037,1.6639,-0.038068
19,0.087842,3.4197,-0.024987,-0.52879,1.6601,-0.057113
19,0.085804,3.3819,-0.023079,-0.47601,1.6544,-0.070667
19,0.084119,3.3505,-0.02108,-0.42308,1.6473,-0.079918
19,0.082712,3.3246,-0.019012,-0.37122,1.6393,-0.085377
19,0.081561,3.3031,-0.016854,-0.32113,1.6308,-0.085382
19,0.080622,3.2854,-0.014416,-0.27306,1.6222,-0.07955
19,0.079832,3.2707,-0.011255,-0.22723,1.6143,-0.068558
19,0.079178,3.2586,-0.0069878,-0.184,1.6074,-0.036109
19,0.078624,3.2485,-0.0017138,-0.14417,1.6038,0.029654
19,0.078166,3.2402,0.0043274,-0.10815,1.6068,0.11498
19,0.077813,3.2333,0.010983,-0.075384,1.6183,0.21273
19,0.077521,3.2276,0.018135,-0.045187,1.6396,0.31975
19,0.077267,3.2228,0.025697,-0.017066,1.6715,0.43345
19,0.076951,3.2186,0.033611,0.0093227,1.7149,0.55249
19,0.076597,3.2151,0.04179,0.03428,1.7701,0.67486
19,0.076805,3.2134,0.050188,0.058052,1.8376,0.79908
19,0.078622,3.2151,0.058794,0.080844,1.9175,0.92502
19,0.082916,3.2215,0.067552,0.10282,2.01,1.0515
19,0.089837,3.2331,0.076456,0.12414,2.1152,1.1779
19,0.098959,3.2493,0.085474,0.14489,2.233,1.3036
19,0.10981,3.269,0.094553,0.16519,2.3633,1.4281
19,0.12207,3.2915,0.1037,0.18512,2.5061,1.551
19,0.13551,3.3164,0.11292,0.20484,2.6612,1.6728
19,0.14993,3.3432,0.12231,0.22455,2.8285,1.7948
19,0.16514,3.3717,0.13182,0.24395,3.008,1.9159
19,0.181,3.4015,0.14083,0.26196,3.1996,2.0295
19,0.19742,3.4324,0.14828,0.27686,3.4025,2.127
19,0.21428,3.4642,0.1533,0.28723,3.6152,2.1894
19,0.23154,3.4968,0.15572,0.2927,3.8342,2.2037
19,0.24911,3.53,0.15597,0.29384,4.0545,2.184
19,0.26692,3.5637,0.15453,0.29153,4.2729,2.141
19,0.28493,3.5979,0.15169,0.2865,4.4871,2.0793
19,0.30311,3.6325,0.1477,0.27922,4.695,2.0029
19,0.32157,3.6677,0.14274,0.27008,4.8953,1.9148
19,0.34023,3.703,0.13701,0.2594,5.0868,1.8181
19,0.35846,3.7373,0.13062,0.24743,5.2686,0.44568
19,0.37519,3.7688,0.12368,0.23441,5.3131,-0.36069
19,0.38952,3.796,0.11631,0.2205,5.2771,0.39799
19,0.40128,3.8185,0.10856,0.20586,5.3169,0.91789
19,0.4109,3.8369,0.10049,0.19062,5.4087,1.0772
